"Time (s)","Linear Acceleration x (m/s^2)","Linear Acceleration y (m/s^2)","Linear Acceleration z (m/s^2)"
2.254897100E-2,-2.420854568E-2,1.906132698E-1,3.147792816E-1
3.261197100E-2,-4.021630287E-1,-2.778778076E-1,4.274368286E-1
4.267097100E-2,-2.147741318E-1,-4.752144814E-1,4.627733231E-1
5.273097100E-2,-1.676988602E-2,-3.350415230E-1,4.430632591E-1
6.279063700E-2,-1.200613976E-1,-3.867321014E-1,-1.192070007E0
7.285063700E-2,-4.391322136E-1,-4.971466064E-1,-1.985538483E0
8.381897100E-2,-9.998774529E-1,-6.580758095E-1,-1.285096645E0
9.387797100E-2,-8.746910095E-1,-6.040904522E-1,-4.718627930E-1
1.039359710E-1,-8.912591934E-1,-6.326987743E-1,-6.388511658E-1
1.139944710E-1,-7.691936493E-1,-3.268806934E-1,-8.302526474E-1
1.240538040E-1,-1.120237350E0,-2.982256413E-1,1.348934174E-1
1.341133040E-1,-1.257734776E0,-5.393669605E-1,9.744815826E-1
1.441727040E-1,-1.047214508E0,-4.475052357E-1,1.067978859E0
1.542315370E-1,-2.973690033E-1,2.538089752E-1,5.974702835E-1
1.642902510E-1,8.197689056E-2,4.957296848E-1,5.469155312E-1
1.743491260E-1,2.774333954E-1,4.631295204E-1,5.600576401E-1
1.844085700E-1,8.228759766E-1,7.177600861E-1,3.476333618E-1
1.944684700E-1,9.255685806E-1,7.473020554E-1,5.780558586E-1
2.045285600E-1,7.656035423E-1,5.846972466E-1,7.564601898E-1
2.146068100E-1,4.041285515E-1,4.234905243E-1,6.513252258E-1
2.246853480E-1,-1.647410393E-1,-1.540184021E-2,3.853864670E-1
2.347628480E-1,-8.775849342E-1,-8.212306499E-1,-7.540636063E-1
2.448795140E-1,-1.311494350E0,-9.252104759E-1,-5.096459389E-1
2.549927640E-1,-1.694586754E0,-1.063190222E0,1.028365612E0
2.651029400E-1,-2.076859474E0,-8.907287121E-1,2.955538750E0
2.752106060E-1,-9.357547760E-1,-5.005433559E-1,3.142726421E0
2.853156060E-1,-5.516076088E-1,-8.745033741E-1,4.303209305E0
2.954183060E-1,1.144600391E0,7.124137878E-2,2.577349901E0
3.055191150E-1,1.773427486E0,5.957889557E-1,1.531051159E0
3.156183420E-1,1.299717426E0,9.398179054E-1,1.404857159E0
3.257504280E-1,1.065892220E0,8.450927734E-1,-3.477387428E-1
3.358796780E-1,1.265379906E0,1.414432526E-1,-1.546916485E0
3.460062780E-1,1.068480492E0,-1.022705793E0,-1.890715122E0
3.561305850E-1,-5.849027634E-1,-1.684396744E0,-2.375577450E0
3.662526590E-1,-1.860157013E0,-1.813068867E0,-9.285171032E-1
3.763726230E-1,-1.352087975E0,-1.140176773E0,2.147770166E0
3.864906230E-1,-1.280857086E0,-8.195331097E-1,3.838842869E0
3.966067230E-1,-7.016563416E-1,-7.247276306E-1,2.721806288E0
4.067226560E-1,-1.750612259E-1,-1.329118967E0,1.159752727E0
4.168385220E-1,1.956558228E-1,-1.944435000E0,7.399106026E-2
4.269541880E-1,8.370289803E-1,-2.251546144E0,8.609985113E-1
4.370699540E-1,7.835369110E-1,-2.394042492E0,8.302209973E-1
4.471857870E-1,6.278028488E-1,-2.730318785E0,3.927145004E-1
4.573017200E-1,3.934535980E-1,-3.040225744E0,4.228869677E-1
4.674176860E-1,-7.789611816E-3,-2.948408604E0,1.891685247E0
4.775337860E-1,-2.303652763E0,-1.825935841E-1,3.734038830E0
4.876672190E-1,-2.806787491E0,1.986944914E0,2.306364536E0
4.978005850E-1,-1.211493492E0,1.771544933E0,2.084752798E0
5.079339180E-1,1.835022926E0,9.072866440E-1,1.039443016E0
5.180600510E-1,4.092832565E0,3.148493767E-1,7.348936200E-1
5.281855170E-1,4.505256653E0,4.208834171E-1,7.757136822E-1
5.383109830E-1,4.229592323E0,3.014497757E-1,-2.590332031E-1
5.484162830E-1,3.424947262E0,1.084310055E0,3.809357882E-1
5.585217490E-1,3.481507301E0,1.825212955E0,5.875719786E-1
5.686543150E-1,3.620165348E0,2.423290253E0,7.609084249E-1
5.787867150E-1,2.864674568E0,2.135461330E0,9.740040302E-1
5.889191810E-1,2.196373463E0,1.777087450E0,-7.214771509E-1
5.990517470E-1,2.735403061E0,6.708986759E-1,-2.384122372E0
6.091842130E-1,4.217162132E0,2.646317482E-1,-1.660651207E0
6.193164790E-1,5.424491882E0,3.522491455E-1,-1.461418748E0
6.294223450E-1,6.002077103E0,-4.033045769E-1,-1.621373773E0
6.395282450E-1,6.018187523E0,-9.691879749E-1,-2.401612282E0
6.496341110E-1,6.314523697E0,-3.408868313E-1,-3.619247437E0
6.597398770E-1,4.479877472E0,-6.547086239E-1,-3.345474243E0
6.698455100E-1,1.220234871E0,-1.059845924E0,-2.268785954E0
6.799510760E-1,4.657669067E-1,-5.614936352E-1,-5.106587410E-1
6.900566760E-1,2.068016529E0,4.129467010E-1,1.176308870E0
7.001622420E-1,5.655866623E0,2.473942518E0,-3.904199600E-1
7.102681750E-1,4.339224815E0,2.873338223E0,5.353112221E-1
7.203744750E-1,3.278335571E0,1.897369623E0,1.826028824E-1
7.304982410E-1,2.184817791E0,5.138776302E-1,-1.508235931E-2
7.406220740E-1,1.576454163E0,-3.124337196E-1,2.376022339E-1
7.507460400E-1,6.765275002E-1,-1.794743538E-1,5.146970749E-1
7.608700730E-1,-4.900932312E-3,2.802254915E0,5.319924355E-1
7.709942390E-1,-1.254517555E0,3.770096779E0,1.286262035E0
7.811183720E-1,-3.672502041E0,1.999224186E0,3.793989182E0
7.912252050E-1,-4.697383881E0,-1.001266718E0,7.161326408E0
8.013320050E-1,-4.451907158E0,-3.172185898E0,9.669404984E0
8.126399710E-1,-2.912305355E0,-3.847435474E0,1.117691231E1
8.227019710E-1,-4.734559059E-1,-3.206298351E0,1.086217976E1
8.327669710E-1,1.041352987E0,-2.156025410E0,8.032464027E0
8.428299710E-1,2.653105974E0,-9.405182600E-1,3.922676086E0
8.528933040E-1,3.661272049E0,-6.657102108E-1,6.647415161E-1
8.629573040E-1,4.716502190E0,-5.967738628E-1,-1.882723808E0
8.730219040E-1,4.868464947E0,5.384991169E-1,-2.136846542E0
8.830870700E-1,3.936460972E0,2.167299271E0,3.910541534E-2
8.931522120E-1,2.843076944E0,2.669569731E0,7.344341278E-1
9.032173370E-1,1.723968267E0,2.168452978E0,2.920656204E-1
9.132825590E-1,7.758457661E-1,1.368395209E0,4.664707184E-1
9.233480590E-1,-4.939521551E-1,4.978809357E-1,1.045326233E0
9.334138770E-1,-1.435914993E0,-1.783509254E-1,6.639251709E-1
9.434799600E-1,-1.332727194E0,-9.702384472E-1,2.909851074E-1
9.535541130E-1,-9.611402750E-1,-1.665769339E0,1.139163971E-1
9.636276840E-1,-2.907211542E0,-6.109067440E0,3.879093170E0
9.737348170E-1,-2.960306168E0,-4.503574848E0,-6.695969582E0
9.838391920E-1,-1.896191359E0,-2.609768629E0,-2.346259117E0
9.939410740E-1,-1.336924314E0,-2.891814470E0,5.451386452E0
1.004040518E0,-8.437263966E-2,-4.822587967E-1,1.889787483E1
1.014137833E0,-2.898089886E0,3.134207726E-1,9.504247665E0
1.024233383E0,-5.196018219E0,-4.889931679E-1,2.755642891E0
1.034327573E0,-4.082091808E0,-2.739517212E0,1.411734581E0
1.044420482E0,-2.036740065E0,-2.029843330E0,8.534231186E-1
1.054547134E0,-3.545907736E-1,-1.497621059E0,-2.063894272E-1
1.064671175E0,1.439147234E0,-1.075567245E0,2.796173096E-2
1.074792735E0,2.984899998E0,-4.309401512E-1,7.961368561E-2
1.084911927E0,3.401669264E0,1.784915924E-1,1.317148209E-1
1.095028889E0,2.986801147E0,9.962990284E-1,-1.157361031E0
1.105143781E0,2.947234154E0,1.695501804E0,-1.623162270E0
1.115256746E0,2.966660261E0,1.656068802E0,3.803634644E-2
1.125367946E0,2.359237671E0,1.318860054E0,1.063378334E0
1.135478879E0,1.539821386E0,7.051281929E-1,9.644374847E-1
1.145589845E0,8.364497423E-1,-1.659717560E-1,4.504489899E-2
1.155700645E0,7.780413628E-1,-6.600685120E-1,-7.122001648E-1
1.165811178E0,2.984005213E-1,-3.983716965E-1,-9.338130951E-1
1.175921478E0,-5.939819813E-1,-2.658286095E-1,-3.165273666E-1
1.186031611E0,-1.059434533E0,-4.480504990E-2,6.124200821E-1
1.196142444E0,-1.179705381E0,5.359458923E-2,1.038153648E0
1.206253310E0,-1.322611928E0,3.523654938E-1,1.123617172E0
1.216382043E0,-7.736271620E-1,7.506694794E-1,9.721736908E-1
1.226510809E0,-1.942505836E-1,1.273978949E0,5.992670059E-1
1.236639575E0,6.503925323E-1,2.068762779E0,4.369926453E-2
1.246768041E0,1.821134686E0,2.552508831E0,-3.934288025E-2
1.256892707E0,2.046388388E0,2.162730455E0,-2.801437378E-1
1.267017040E0,1.744880319E0,1.422500610E0,-6.078557968E-1
1.277124173E0,1.362078667E0,1.220380545E0,-3.763284683E-1
1.287231239E0,7.881194353E-1,1.306555748E0,-4.111576080E-2
1.298557971E0,2.353030443E-1,1.504635811E0,-9.497928619E-2
1.308613971E0,8.397591114E-2,1.502436161E0,-4.071664810E-1
1.318675971E0,1.613887548E-1,1.902567387E0,-8.099942207E-1
1.328737971E0,-3.869478703E-1,1.690903425E0,-1.134487152E0
1.338799971E0,-3.317794800E-1,1.588810205E0,3.769172668E0
1.348861971E0,-4.323422909E-2,1.240282297E0,2.417465210E0
1.358923971E0,-4.250258207E-2,1.730993509E0,3.024330139E-1
1.368985304E0,5.038817525E-1,2.717743158E0,-4.573163986E-1
1.379046161E0,5.830422640E-1,1.922119141E0,-3.149862289E-1
1.389107036E0,1.176495552E-1,6.273367405E-1,2.819385529E-1
1.399167369E0,-4.180051684E-1,-1.553692818E-1,6.563453674E-1
1.409227169E0,-6.774727106E-1,-4.505753517E-1,5.435590744E-1
1.419286896E0,-5.300061703E-1,-5.038924217E-1,4.125757217E-1
1.429346479E0,-1.631340384E-1,-5.873613358E-1,3.595428467E-1
1.439405940E0,2.356835008E-1,-6.521124840E-1,3.611230850E-1
1.449465368E0,5.288770199E-1,-6.991000175E-1,3.336820602E-1
1.459560234E0,7.311532497E-1,-6.593322754E-1,1.239652634E-1
1.469653171E0,8.509449363E-1,-4.985594749E-1,1.198034286E-1
1.479744112E0,8.937772512E-1,-2.854404449E-1,1.290664673E-1
1.489833223E0,8.684434295E-1,3.815412521E-2,2.975234985E-1
1.499920696E0,7.072801590E-1,2.495012283E-1,4.492254257E-1
1.510006846E0,3.980093598E-1,4.861679077E-1,5.849981308E-1
1.520091846E0,5.908167362E-2,7.007033825E-1,3.639612198E-1
1.530175936E0,-2.406290770E-1,8.528008461E-1,2.794408798E-1
1.540294022E0,-4.652420878E-1,8.947610855E-1,4.379634857E-1
1.550409730E0,-4.612854123E-1,8.565435410E-1,2.703132629E-1
1.560523170E0,-2.106795013E-1,7.306647301E-1,2.406749725E-1
1.570634516E0,5.028045177E-2,5.145351887E-1,1.202650070E-1
1.580744108E0,2.600433230E-1,2.570099831E-1,1.370859146E-1
1.590852143E0,2.425485849E-1,-3.293323517E-2,2.479858398E-1
1.600958798E0,4.497593641E-2,-9.363222122E-2,8.361148834E-2
1.611063998E0,-8.225886524E-2,-2.213716507E-2,-2.201671600E-1
1.621169198E0,-1.996934414E-2,1.247615814E-1,-2.634229660E-1
1.631275364E0,7.251884341E-1,6.239709854E-1,3.528957367E-1
1.641381597E0,7.389420271E-1,6.105771065E-1,3.462886810E-1
1.651487897E0,7.530518770E-1,5.990967751E-1,3.405990601E-1
1.661594230E0,7.576942444E-1,6.720237732E-1,4.300260544E-1
1.671700830E0,5.202237368E-1,7.690641880E-1,3.030681610E-1
1.681807796E0,2.002628148E-1,8.587033749E-1,2.957839966E-1
1.691914762E0,-9.938813746E-2,8.654744625E-1,1.477308273E-1
1.702040828E0,-2.893602550E-1,8.121955395E-1,2.570724487E-1
1.712166961E0,-3.559782505E-1,7.523474693E-1,3.428764343E-1
1.722293127E0,-3.317667246E-1,6.908953190E-1,4.264726639E-1
1.732419460E0,-2.708380818E-1,6.361846924E-1,4.675703049E-1
1.742545826E0,-1.190723181E-1,4.817821980E-1,4.492597580E-1
1.752672259E0,8.314967155E-3,3.471736908E-1,2.579145432E-1
1.762780992E0,5.389416218E-2,3.518540859E-1,7.503032684E-2
1.772889658E0,5.946215987E-2,3.476302624E-1,8.845138550E-2
1.784322971E0,1.582311094E-2,3.256630898E-1,2.937698364E-2
1.794389971E0,-1.001168787E-2,2.897284031E-1,1.644659042E-1
1.804455971E0,3.336031735E-2,3.110661507E-1,1.176071167E-1
1.814522471E0,1.224158406E-1,4.837543964E-1,8.815288544E-2
1.824588804E0,2.475031912E-1,6.958429813E-1,7.929801941E-3
1.834655554E0,4.704425633E-1,7.740485668E-1,-1.176824570E-1
1.844722354E0,5.904065967E-1,6.207220554E-1,6.436347961E-2
1.854788854E0,5.867887735E-1,2.791678905E-1,2.213287354E-1
1.864854282E0,4.582635164E-1,-9.117698669E-2,1.435813904E-1
1.874918907E0,2.071117163E-1,-3.750278950E-1,2.401380539E-1
1.884983018E0,-2.747152746E-2,-4.793121815E-1,2.662467957E-1
1.895047118E0,-1.255702376E-1,-4.733347893E-1,2.617092133E-1
1.905110936E0,-1.358035803E-1,-3.639438152E-1,2.893457413E-1
1.915174519E0,-9.646524489E-2,-2.162518501E-1,1.579103470E-1
1.925237903E0,-4.423928261E-2,1.743316650E-3,3.445720673E-2
1.935301045E0,-2.557173371E-2,3.597834110E-1,5.184268951E-2
1.945405045E0,1.563933492E-2,8.455305099E-1,1.065511703E-1
1.955506170E0,8.826212585E-2,1.145253181E0,1.770009995E-1
1.965604640E0,1.757380515E-1,1.192003250E0,3.105669022E-1
1.975701028E0,3.350711763E-1,1.015360355E0,2.720232010E-1
1.985795501E0,4.872997999E-1,7.099852562E-1,2.927026749E-1
1.995888301E0,5.713231564E-1,2.228033543E-1,3.096389771E-2
2.005979491E0,4.662573934E-1,-1.124081612E-1,-9.767436981E-2
2.016069263E0,2.488967776E-1,-3.882207870E-1,-1.215753555E-1
2.026192915E0,-1.423621178E-2,-4.984819889E-1,-9.787559509E-2
2.036313831E0,-2.622470856E-1,-4.666864872E-1,-3.850364685E-2
2.046433111E0,-3.281654119E-1,-3.067464828E-1,-8.157730103E-2
2.056550226E0,-2.081335187E-1,-1.213624477E-1,-7.957172394E-2
2.066665300E0,1.888385415E-2,2.724313736E-2,-1.245307922E-2
2.076778478E0,2.839292884E-1,1.620962620E-1,3.329086304E-2
2.086889822E0,3.874070048E-1,2.653136253E-1,1.123867035E-1
2.096999455E0,3.485113978E-1,3.333988190E-1,2.053251266E-1
2.107108855E0,1.570419073E-1,3.680226803E-1,2.040138245E-1
2.117218121E0,-2.924934030E-2,3.632235527E-1,9.689903259E-2
2.127327287E0,-1.378940195E-1,3.086254597E-1,3.543281555E-2
2.137436387E0,-9.227997065E-2,2.770736217E-1,5.832862854E-2
2.147545320E0,4.082292318E-3,2.274172306E-1,2.037324905E-1
2.157654320E0,6.061962247E-2,2.046098709E-1,1.841993332E-1
2.167763486E0,6.679147482E-2,1.030185223E-1,-1.440896988E-1
2.177872752E0,5.844786763E-2,-4.991006851E-2,-1.855859756E-1
2.187999785E0,5.630981922E-2,-2.047703266E-1,1.745061874E-1
2.198126718E0,5.263298750E-2,-1.841044426E-1,2.237157822E-1
2.208253618E0,1.474276781E-1,-1.605939865E-1,3.386964798E-1
2.218380551E0,2.503510714E-1,-1.327755451E-1,3.075008392E-1
2.228507551E0,2.740694284E-1,-9.518146515E-3,8.763504028E-2
2.238634717E0,2.423675954E-1,2.147707939E-1,-1.546163559E-1
2.248741550E0,1.107631326E-1,4.581408501E-1,-2.890586853E-2
2.258848450E0,-1.270765066E-1,5.708365440E-1,1.753330231E-2
2.270223971E0,-1.797501147E-1,5.093131065E-1,6.697654724E-3
2.280285971E0,-7.120326161E-2,3.047976494E-1,5.643844604E-2
2.290347971E0,2.348574996E-2,-3.003382683E-2,7.213211060E-2
2.300410971E0,7.108533382E-2,-3.264019489E-1,2.133083344E-1
2.310473304E0,2.027237415E-2,-5.170269012E-1,1.377353668E-1
2.320536054E0,-5.509009957E-2,-4.461324215E-1,1.725473404E-1
2.330598254E0,-1.212249249E-1,-2.258117199E-1,1.590261459E-1
2.340660920E0,-1.428132057E-1,8.414673805E-2,9.473133087E-2
2.350723920E0,-5.734762549E-2,3.411149979E-1,1.356821060E-1
2.360787045E0,1.251132488E-1,3.997077942E-1,1.217489243E-1
2.370850267E0,2.048731148E-1,2.779202461E-1,4.762554169E-2
2.380913467E0,1.487215161E-1,1.144285202E-1,5.448341370E-2
2.390976376E0,-8.004558086E-2,-1.838929653E-1,-7.781314850E-2
2.401039126E0,-3.250837922E-1,-3.772499561E-1,-2.246456146E-1
2.411102049E0,-4.873188734E-1,-4.516205788E-1,-1.083631516E-1
2.421165406E0,-5.177479386E-1,-3.828179836E-1,-3.681468964E-2
2.431264139E0,-4.650689065E-1,-2.102091312E-1,3.356933594E-2
2.441360701E0,-2.439228296E-1,1.033585072E-1,2.095794678E-2
2.451455465E0,-5.212107301E-2,3.259084225E-1,8.976364136E-2
2.461548465E0,8.471319079E-2,4.800980091E-1,2.414321899E-2
2.471639780E0,2.094492316E-1,4.724054337E-1,-4.675865173E-2
2.481729630E0,2.539673150E-1,3.381299973E-1,5.489540100E-2
2.491818153E0,2.955547571E-1,1.825923920E-1,5.125331879E-2
2.501905425E0,3.610827327E-1,2.141594887E-2,9.745502472E-2
2.512027164E0,4.244582355E-1,-9.312534332E-2,1.383590698E-1
2.522146414E0,4.209568799E-1,-8.370542526E-2,1.886177063E-1
2.532263294E0,3.167662323E-1,-2.631950378E-2,1.407527924E-1
2.542377947E0,1.246607304E-1,7.889127731E-2,7.847213745E-2
2.552490576E0,-1.258319765E-1,1.328585148E-1,7.081317902E-2
2.562601397E0,-3.011689782E-1,1.462562084E-1,1.220674515E-1
2.572710569E0,-3.520798981E-1,1.263031960E-1,1.197643280E-1
2.582818135E0,-3.156591058E-1,1.119263172E-1,4.265117645E-2
2.592925568E0,-2.177206725E-1,8.559346199E-2,-9.906101227E-2
2.603032834E0,-1.024780273E-1,4.405736923E-2,-3.905963898E-2
2.613140100E0,5.169987679E-3,-4.837036133E-3,6.493854523E-2
2.623247333E0,7.219547033E-2,-6.901502609E-2,6.177997589E-2
2.633354666E0,1.787628531E-1,-9.726381302E-2,-2.991199493E-2
2.643462099E0,2.056635022E-1,-1.116931438E-1,-4.114913940E-1
2.653569632E0,1.947165430E-1,-2.294251919E-1,-2.938785553E-1
2.663677198E0,2.108677030E-1,-3.304102421E-1,3.233327866E-1
2.673802264E0,1.736132503E-1,-3.388226032E-1,1.104230881E-1
2.683927464E0,9.066179395E-2,-2.552392483E-1,-1.588344574E-2
2.694052830E0,6.916034222E-2,-1.043555737E-1,-8.448886871E-2
2.704178330E0,5.772036314E-2,1.406445503E-1,-1.121168137E-1
2.714303863E0,4.118454456E-2,3.445672989E-1,-1.630783081E-1
2.724429196E0,3.135219216E-2,4.238743782E-1,-1.510791779E-1
2.734536929E0,-9.474831820E-2,3.152973652E-1,1.918668747E-1
2.744644562E0,-1.061601043E-1,1.890416145E-1,2.879610062E-1
2.754779428E0,-9.044036269E-2,1.179323196E-1,1.892862320E-1
2.764914294E0,3.829374909E-2,1.510763168E-2,5.923843384E-2
2.775049227E0,1.267394125E-1,-3.978228569E-2,4.026317596E-2
2.785184293E0,1.582342386E-1,-8.225154877E-2,3.195476532E-2
2.795319459E0,1.277548969E-1,-1.021854877E-1,2.881431580E-2
2.805454625E0,3.715342283E-2,-1.397092342E-1,5.409145355E-2
2.815562458E0,-2.422255278E-2,-1.548619270E-1,3.324127197E-2
2.825670191E0,-7.537099719E-2,-1.141619682E-1,-8.164310455E-2
2.835777791E0,-6.324979663E-2,-7.904982567E-2,-1.513967514E-1
2.845885391E0,2.676898241E-2,-1.014161110E-2,-1.277236938E-1
2.855993124E0,4.024410248E-2,1.936531067E-2,1.803398132E-3
2.866100924E0,3.917166591E-2,-1.145291328E-2,1.823711395E-1
2.876208724E0,1.800262928E-2,-5.720281601E-2,1.256313324E-1
2.886316724E0,1.255720854E-2,-8.358931541E-2,5.370903015E-2
2.896424924E0,3.641486168E-3,-6.385207176E-2,2.793312073E-3
2.906533357E0,2.912664413E-2,-3.953456879E-3,5.228996277E-2
2.916659490E0,7.340109348E-2,1.023521423E-1,1.605987549E-3
2.926785723E0,8.781430125E-2,1.497297287E-1,1.837635040E-2
2.936911856E0,8.973371983E-2,1.025176048E-1,9.298324585E-3
2.947037756E0,7.368862629E-2,4.208064079E-2,5.406379700E-3
2.957163522E0,1.203667223E-1,-5.350637436E-2,2.813148499E-2
2.967289255E0,1.673474610E-1,-9.605240822E-2,1.156320572E-1
2.977397455E0,1.548863351E-1,-1.223111153E-1,7.364368439E-2
2.987505588E0,1.112536788E-1,-9.868884087E-2,-6.805419922E-3
2.998896971E0,7.913795114E-2,-2.487063408E-2,-3.459072113E-2
3.008963971E0,5.895823240E-2,4.002189636E-2,-1.901912689E-2
3.019029971E0,6.580916047E-2,7.156777382E-2,2.771282196E-2
3.029095471E0,5.350226164E-2,6.652736664E-2,-1.679897308E-2
3.039159137E0,5.802848935E-2,2.769947052E-3,6.029415131E-2
3.049222887E0,4.044419527E-2,-3.760457039E-2,4.142665863E-2
3.059286887E0,-1.026129723E-2,-5.403995514E-2,-3.492069244E-2
3.069351053E0,-6.164878607E-3,-4.671859741E-2,-3.231906891E-2
3.079414195E0,1.191094518E-2,-3.892374039E-2,1.119232178E-2
3.089477445E0,4.483720660E-2,8.131742477E-3,2.418050766E-1
3.099540778E0,6.712713838E-2,4.662728310E-2,1.016530991E-1
3.109604078E0,3.530365229E-2,3.292417526E-2,-3.937692642E-1
3.119667078E0,-6.648063660E-3,-1.528804302E-1,-2.038145065E-1
3.129729911E0,2.825289965E-3,-2.842416763E-1,1.729478836E-1
3.139792987E0,1.481056213E-2,-2.685294151E-1,2.221097946E-1
3.149855987E0,5.948665738E-2,-1.691236496E-1,1.012887955E-1
3.159955187E0,1.118591428E-1,2.474594116E-2,-1.492280960E-1
3.170052062E0,1.572091877E-1,2.861397266E-1,-2.584247589E-1
3.180146885E0,1.145206690E-1,4.055337906E-1,-3.423681259E-1
3.190239885E0,-2.696961164E-2,3.446447849E-1,-2.236890793E-1
3.200331200E0,-1.385436058E-1,1.559937000E-1,-1.392364502E-3
3.210421050E0,-1.385087669E-1,-5.036854744E-2,8.650684357E-2
3.220509716E0,-2.808660269E-2,-1.776349545E-1,8.729076385E-2
3.230597261E0,8.500853181E-2,-1.847486496E-1,5.137252808E-2
3.240718391E0,1.214031875E-1,-1.230990887E-1,8.325576782E-4
3.250845932E0,8.795428276E-2,-2.742862701E-2,1.276206970E-2
3.262123971E0,3.551235795E-2,-8.638620377E-3,-1.133728027E-2
3.272182971E0,4.638403654E-3,-1.475453377E-2,-4.299831390E-2
3.282242971E0,4.979670048E-3,-4.981088638E-2,-3.644084930E-2
3.292304971E0,2.889707685E-2,-2.906250954E-2,-1.520729065E-2
3.302367304E0,4.749149084E-2,-1.707911491E-2,2.073955536E-2
3.312430304E0,3.970101476E-2,7.121086121E-3,-5.461692810E-3
3.322492904E0,2.205985785E-2,1.898431778E-2,-5.813026428E-2
3.332555904E0,5.401700735E-3,2.354669571E-2,3.767013550E-2
3.342618904E0,-8.945494890E-3,-1.399040222E-2,3.570556641E-2
3.352682029E0,-2.931857109E-2,-6.539058685E-2,1.033096313E-1
3.362744695E0,1.339447498E-2,-1.062142849E-1,8.186340332E-2
3.372806795E0,5.435001850E-2,-8.961915970E-2,-3.621864319E-2
3.382869067E0,1.030771732E-1,-2.093052864E-2,-8.991336823E-2
3.392931233E0,7.487717271E-2,4.968953133E-2,-3.761482239E-2
3.403034156E0,-6.099879742E-3,1.247587204E-1,-3.238296509E-2
3.413133941E0,-5.679729581E-2,1.622767448E-1,-6.511306763E-2
3.423230874E0,-5.287006497E-2,1.186056137E-1,-6.182098389E-2
3.433325499E0,-1.987755299E-2,5.876874924E-2,-1.760864258E-2
3.443417910E0,2.313548326E-2,-2.627372742E-2,6.895065308E-4
3.453508576E0,6.082004309E-2,-7.441425323E-2,3.856563568E-2
3.463597576E0,5.051076412E-2,-8.674979210E-2,3.570747375E-2
3.473685076E0,4.540675879E-2,-6.588888168E-2,7.100868225E-2
3.483810076E0,5.274748802E-2,-3.855204582E-2,5.572700500E-2
3.493932166E0,6.206446886E-2,1.654577255E-2,5.205631256E-2
3.504051644E0,4.238396883E-2,3.925776482E-2,6.944847107E-2
3.514168685E0,4.447251558E-2,3.994369507E-2,-1.946449280E-3
3.524283485E0,1.143413782E-2,3.100085258E-2,-5.425453186E-2
3.534396100E0,3.652852774E-2,1.298618317E-2,2.528190613E-2
3.544506655E0,6.380480528E-2,-2.560138702E-2,1.435241699E-1
3.554615405E0,1.194217205E-1,6.422281265E-3,2.790222168E-1
3.564722301E0,6.380158663E-2,2.388644218E-2,1.557950974E-1
3.574827601E0,3.222340345E-2,-5.633950233E-2,-2.470321655E-1
3.584932834E0,-1.112639904E-3,-1.249592304E-1,-8.677959442E-2
3.595037967E0,-4.947590828E-2,-1.572046280E-1,-9.614372253E-2
3.605143133E0,-2.308583260E-2,-1.506245136E-1,1.782808304E-1
3.615248233E0,4.306679964E-2,-1.092920303E-1,2.689018250E-1
3.625353333E0,1.129443049E-1,-4.001688957E-2,1.835346222E-2
3.635458366E0,1.881936193E-1,1.596367359E-1,-9.721851349E-2
3.645584199E0,1.453546882E-1,2.938618660E-1,-8.310317993E-2
3.655710032E0,-1.987373829E-2,3.183703423E-1,-2.541732788E-2
3.665836032E0,-1.481696367E-1,2.731828690E-1,7.389640808E-2
3.675962298E0,-1.811647117E-1,1.699693203E-1,6.048965454E-2
3.686088598E0,-1.241721213E-1,7.014846802E-2,5.123424530E-2
3.696215098E0,9.450912476E-4,-8.581399918E-3,2.018070221E-2
3.706324064E0,1.117430329E-1,-1.184465885E-1,1.545715332E-2
3.716433197E0,1.639837623E-1,-1.605887413E-1,6.613826752E-2
3.727830971E0,1.153113842E-1,-1.471791267E-1,4.042148590E-2
3.737900971E0,8.146548271E-2,-1.289861202E-1,3.861427307E-2
3.747963971E0,2.891534567E-2,-7.257413864E-2,4.632282257E-2
3.758027471E0,-4.326701164E-3,-1.171827316E-2,-1.075935364E-2
3.768090471E0,-8.974492550E-3,7.784366608E-4,-6.802082062E-2
3.778153721E0,-9.817063808E-3,1.309990883E-2,-1.276302338E-2
3.788216521E0,5.773246288E-3,3.334188461E-2,6.435585022E-2
3.798279187E0,1.037073135E-2,2.310252190E-2,7.702636719E-2
3.808341044E0,3.242415190E-2,-1.836895943E-2,9.918594360E-2
3.818403044E0,2.554047108E-2,-3.907132149E-2,4.683017731E-2
3.828465044E0,4.877424240E-2,-5.179762840E-2,6.093978882E-2
3.838526844E0,4.935616255E-2,-3.706407547E-2,7.578849792E-3
3.848588207E0,6.254768372E-2,2.978754044E-2,-3.646564484E-2
3.858649623E0,5.553740263E-2,9.234237671E-2,3.212738037E-2
3.868713007E0,3.881460428E-2,8.818650246E-2,4.818820953E-2
3.878776364E0,3.843426704E-2,7.454681396E-2,6.191635132E-2
3.888881830E0,9.193658829E-3,7.316303253E-2,3.745937347E-2
3.898984455E0,1.807904243E-2,1.024746895E-2,8.751869202E-2
3.909084690E0,2.719807625E-2,-6.627082825E-3,6.355857849E-2
3.919182690E0,5.116122961E-2,8.575916290E-4,5.410099030E-2
3.929278690E0,7.263994217E-2,1.178026199E-3,3.507709503E-2
3.939372940E0,5.105423927E-2,2.329444885E-2,1.615142822E-2
3.949465511E0,4.855418205E-2,1.886963844E-2,6.657981873E-2
3.959556601E0,1.236969233E-2,2.617359161E-2,7.861709595E-2
3.969681774E0,2.468466759E-3,-1.279377937E-2,7.358837128E-2
3.979804190E0,7.192254066E-3,-1.419377327E-2,3.233718872E-2
3.989923990E0,4.383444786E-2,-3.299689293E-2,-6.825447083E-3
4.000041528E0,5.250310898E-2,-3.985309601E-2,-2.209949493E-2
4.010156935E0,3.957492113E-2,-3.931283951E-2,4.650974274E-2
4.020270327E0,7.100403309E-3,2.194666862E-2,1.968870163E-1
4.030381878E0,1.129573584E-2,7.533025742E-2,7.974052429E-2
4.040491611E0,-5.179584026E-2,3.427648544E-2,-2.214527130E-2
4.050601077E0,-4.328924417E-2,-5.506539345E-2,-1.306982040E-1
4.060710443E0,-2.635049820E-2,-1.035284996E-1,-9.784412384E-2
4.070819809E0,5.091190338E-3,-1.332933903E-1,1.586341858E-2
4.080929109E0,5.629998446E-2,-1.385483742E-1,3.582925797E-1
4.091038242E0,1.783035398E-1,-1.458775997E-1,3.359060287E-1
4.101147208E0,3.469214439E-1,-8.252024651E-2,3.580284119E-2
4.111256241E0,4.325207472E-1,3.029584885E-3,2.691936493E-2
4.121365141E0,3.864123821E-1,1.522605419E-1,-2.849674225E-2
4.131491407E0,1.552342772E-1,2.430651188E-1,-1.996974945E-1
4.141617673E0,-8.476918936E-2,2.156651020E-1,-3.917579651E-1
4.151744006E0,-3.172181845E-1,1.460356712E-1,-4.781599045E-1
4.161870206E0,-3.878908157E-1,-1.274681091E-2,-2.167778015E-1
4.171995506E0,-3.310406804E-1,-1.785635948E-1,-1.292228699E-1
4.182120806E0,-2.581010759E-1,-4.222822189E-1,4.011154175E-3
4.192224972E0,-2.051180303E-1,-6.496322155E-1,1.130657196E-1
4.202329138E0,-1.277106702E-1,-7.051260471E-1,2.571773529E-2
4.212460471E0,-1.910138130E-2,-4.806652069E-1,-1.846122742E-2
4.222592004E0,8.209550381E-2,2.195739746E-2,-8.945083618E-2
4.232724304E0,1.280771494E-1,3.615901470E-1,-1.229934692E-1
4.242856704E0,1.352770925E-1,5.327081680E-1,2.429199219E-2
4.252989204E0,8.539533615E-2,4.276554585E-1,2.503824234E-1
4.263121870E0,9.254813194E-2,2.918076515E-1,2.274942398E-1
4.273227470E0,8.582276106E-2,1.487076283E-1,2.250289917E-1
4.283333203E0,1.267603636E-1,1.106584072E-1,1.324748993E-2
4.293439169E0,4.443645477E-2,1.724741459E-1,1.915073395E-2
4.303545302E0,-1.410287619E-2,2.674565315E-1,8.586406708E-2
4.313651602E0,-5.087417364E-2,4.504163265E-1,1.510124207E-1
4.323758068E0,-9.272629023E-2,5.157840252E-1,1.634120941E-1
4.333864734E0,-9.348732233E-2,4.864525795E-1,2.014799118E-1
4.343971700E0,-4.090696573E-2,4.106619358E-1,1.408319473E-1
4.354078933E0,2.906441689E-3,2.520816326E-1,9.234428406E-2
4.364186233E0,4.694783688E-2,1.016869545E-1,1.168184280E-1
4.374316166E0,5.824005604E-2,-2.145020962E-1,9.495544434E-2
4.384446132E0,6.012570858E-2,-4.270341396E-1,9.102153778E-2
4.394576432E0,1.004602909E-1,-4.923081398E-1,7.557296753E-2
4.404706965E0,1.158114076E-1,-4.621562958E-1,-9.516716003E-3
4.414837631E0,1.369403601E-1,-3.628380299E-1,-2.772331238E-2
4.424968464E0,1.610784531E-1,-2.435164452E-1,-1.030960083E-1
4.435081930E0,1.308283806E-1,-6.930637360E-2,-1.402616501E-1
4.445195463E0,8.053594828E-2,-3.431606293E-2,-3.863811493E-2
4.455336129E0,2.448195219E-2,-8.003711700E-4,-1.173973083E-2
4.465476995E0,-3.963163495E-2,-4.598450661E-2,-4.065322876E-2
4.475617961E0,-3.434792161E-2,-6.859898567E-2,4.962253571E-2
4.485758994E0,-2.175039053E-2,-6.780719757E-2,-1.568794250E-3
4.495900160E0,5.428618193E-2,-2.864170074E-2,-6.716251373E-2
4.506041460E0,1.268082261E-1,6.951022148E-2,1.863222122E-1
4.516155726E0,2.175119221E-1,1.837823391E-1,2.394390106E-2
4.526269959E0,2.222118080E-1,1.414139271E-1,-9.670257568E-3
4.536383392E0,1.994090974E-1,2.263879776E-2,1.009464264E-2
4.546496858E0,1.236977577E-1,-1.038453579E-1,-1.194353104E-1
4.556610391E0,6.285002828E-2,-1.450827122E-1,-1.332626343E-1
4.566723857E0,3.124916553E-2,-1.172902584E-1,5.579566956E-2
4.576837323E0,1.017252803E-1,-3.407311440E-2,1.068382263E-1
4.586950823E0,3.056578338E-1,5.178785324E-2,-3.696346283E-2
4.597064256E0,4.228561223E-1,1.549017429E-1,-8.408260345E-2
4.607177489E0,2.710503042E-1,1.033279896E-1,3.840827942E-2
4.617308455E0,7.722467184E-3,2.251172066E-2,5.156421661E-2
4.627439388E0,-3.141222000E-1,-8.647990227E-2,3.076648712E-2
4.637570354E0,-5.844553709E-1,-1.622614861E-1,7.760238647E-2
4.647701187E0,-7.076504230E-1,-1.520047188E-1,9.267807007E-3
4.657831887E0,-6.267448664E-1,2.448105812E-2,3.110027313E-2
4.667962487E0,-3.388332129E-1,7.440710068E-2,3.281307220E-2
4.678070487E0,-9.213945270E-2,6.739974022E-2,5.061244965E-2
4.688178587E0,7.417196035E-2,1.685833931E-2,8.281612396E-2
4.699537971E0,1.174194515E-1,-7.859230042E-2,3.401184082E-2
4.709601971E0,8.360084891E-2,-2.906017303E-1,-3.829956055E-2
4.719665971E0,3.312271833E-2,-4.375352859E-1,1.074199677E-1
4.729729471E0,-1.513101459E-1,-3.460645676E-1,-7.525634766E-2
4.739792804E0,-3.779733479E-1,-1.749112606E-1,-6.535911560E-2
4.749856304E0,-5.264936686E-1,1.323270798E-1,1.426391602E-1
4.759920504E0,-5.463564992E-1,3.100361824E-1,4.821205139E-2
4.769985004E0,-4.179564714E-1,3.222947121E-1,1.549482346E-1
4.780049575E0,-1.183276176E-1,1.726415157E-1,1.201810837E-1
4.790114325E0,2.902098596E-1,-3.261733055E-2,-3.203582764E-2
4.800179547E0,5.954002142E-1,-2.233467102E-1,-1.697998047E-1
4.810244347E0,6.104650497E-1,-2.601995468E-1,-1.373062134E-1
4.820308801E0,4.935165048E-1,-1.883547306E-1,-9.964466095E-2
4.830372967E0,1.537062526E-1,7.154536247E-2,3.907775879E-2
4.840437197E0,-1.093149483E-1,2.547872066E-1,6.764316559E-2
4.850501268E0,-2.333801091E-1,3.972640038E-1,3.393077850E-2
4.860606534E0,-2.039692104E-1,4.491963387E-1,5.304241180E-2
4.870709096E0,-9.179526567E-2,3.701655865E-1,1.347351074E-1
4.880809331E0,-7.808983326E-3,2.056336403E-1,9.947967529E-2
4.890907553E0,8.715766668E-2,1.563332081E-1,1.793279648E-1
4.901003921E0,7.977116108E-2,9.804463387E-2,-3.497505188E-2
4.911098821E0,2.640141249E-1,-2.076969147E-1,-7.720947266E-2
4.921192440E0,3.638427854E-1,-3.582177162E-1,-3.245544434E-2
4.931284758E0,3.391133547E-1,-3.137204647E-1,1.825714111E-2
4.941411236E0,3.897848129E-1,-1.983861923E-1,5.656147003E-2
4.951535152E0,2.874793410E-1,-1.011238098E-1,7.925415039E-2
4.961656912E0,1.142717004E-1,-9.082317352E-2,-5.699634552E-2
4.971776642E0,1.574361324E-2,-5.632214546E-1,2.901268005E-2
4.981894419E0,-5.247467756E-2,-1.060855389E0,-3.531455994E-2
4.992010347E0,-5.461096764E-2,-7.560689449E-1,1.872062683E-3
5.002124657E0,-6.873428822E-2,-2.942187786E-1,9.673404694E-2
5.012237457E0,-4.045516253E-2,9.943437576E-2,8.223056793E-2
5.022350357E0,8.636850119E-2,2.253153324E-1,3.748989105E-2
5.032463323E0,5.851304531E-2,1.992819309E-1,1.769990921E-1
5.042576389E0,-1.993584633E-2,2.003688812E-1,5.780220032E-3
5.052689489E0,-1.508104801E-1,1.865396500E-1,2.571105957E-2
5.062802555E0,-1.673211455E-1,1.507716179E-1,-6.067562103E-2
5.072915621E0,-8.276045322E-2,9.538412094E-3,-4.896163940E-2
5.083028654E0,3.268647194E-2,-1.649937630E-1,-4.581356049E-2
5.093141720E0,1.062998176E-1,-9.952950478E-2,1.731405258E-1
5.103275853E0,1.054907441E-1,-1.142058372E-1,1.546869278E-1
5.113410119E0,3.392732143E-2,-1.817829609E-1,-2.281188965E-2
5.123544552E0,9.734576941E-2,-2.597553730E-1,-1.384143829E-1
5.133679152E0,2.619793415E-1,-3.236672878E-1,2.894401550E-3
5.143813818E0,4.037318230E-1,-3.330407143E-1,3.618907928E-2
5.153948584E0,4.857537746E-1,-1.746993065E-1,-1.903057098E-2
5.164062717E0,4.167578220E-1,-8.553743362E-3,8.255195618E-2
5.174177050E0,1.475501657E-1,2.239634991E-1,1.213827133E-1
5.185658971E0,6.753480434E-2,2.396092415E-1,3.868579865E-2
5.195720971E0,3.049579263E-1,7.120704651E-2,-1.728954315E-1
5.205787971E0,5.839517713E-1,-1.728169918E-1,-4.875183105E-2
5.215851971E0,5.498340130E-1,-2.080090046E-1,-4.947948456E-2
5.225915304E0,3.120515943E-1,-2.166376114E-1,-8.005142212E-2
5.235978304E0,2.194654942E-2,-1.797115803E-1,5.223655701E-2
5.246042104E0,-1.286854148E-1,-2.779603004E-2,1.711845398E-3
5.256105770E0,-1.427301764E-1,9.952855110E-2,2.886581421E-2
5.266169198E0,-3.520964384E-1,1.875917912E-1,1.130657196E-1
5.276232698E0,-6.013864279E-1,1.530241966E-2,1.875848770E-1
5.286296253E0,-5.524503589E-1,-1.596536636E-1,2.301807404E-1
5.296359553E0,-3.943200111E-1,-2.520174980E-1,2.287940979E-1
5.306422643E0,1.399707794E-1,-3.874433041E-1,-4.908752441E-2
5.316485726E0,9.765536785E-1,-3.958063126E-1,-2.177009583E-1
5.326550418E0,1.168355823E0,-1.299767494E-1,-3.354625702E-1
5.336619703E0,1.013292193E0,-3.540277481E-3,-2.012252808E-1
5.346730569E0,4.387495518E-1,-1.258399487E-1,1.518869400E-1
5.356838444E0,-1.533846855E-1,-2.877833843E-1,2.741937637E-1
5.366943561E0,-4.840775728E-1,-3.830506802E-1,8.877086639E-2
5.377046227E0,-5.674877763E-1,-1.969292164E-1,6.130123138E-2
5.387146595E0,-4.887741208E-1,3.632855415E-2,1.974010468E-1
5.397245095E0,-4.535953999E-1,1.610903740E-1,2.416915894E-1
5.407341761E0,-3.874399066E-1,3.066411018E-1,2.413120270E-1
5.417436761E0,-3.533490300E-1,4.044246674E-1,2.775707245E-1
5.428342761E0,-5.858148932E-1,7.029318810E-1,3.170976639E-1
5.438774971E0,-6.475802660E-1,8.598914146E-1,2.424221039E-1
5.448868971E0,-4.521233439E-1,1.024203539E0,3.933525085E-2
5.458928971E0,-2.489131689E-1,1.156126976E0,-2.055339813E-1
5.468988971E0,-3.923022747E-2,1.210938454E0,-4.833889008E-1
5.479048971E0,-9.205389023E-2,1.408743620E0,-5.983133316E-1
5.489108971E0,-2.096345425E-1,1.487938046E0,-4.192314148E-1
5.499168971E0,-3.319225311E-1,1.418234348E0,4.338645935E-2
5.509229304E0,-4.367880821E-1,1.371111393E0,4.783840179E-1
5.519290018E0,-4.286351204E-1,1.160067558E0,5.838584900E-1
5.529350768E0,-3.268510699E-1,8.611509800E-1,3.649101257E-1
5.539411768E0,-8.937311172E-2,5.213773251E-1,3.170137405E-1
5.549472468E0,2.030589581E-1,-8.174180984E-2,-8.433055878E-2
5.559533104E0,5.986760855E-1,-4.141800404E-1,-5.078916550E-1
5.569593604E0,9.225876331E-1,-6.124885082E-1,-8.478021622E-1
5.579654450E0,1.069687486E0,-8.040874004E-1,-1.431822777E0
5.589752235E0,5.778266788E-1,-1.015476227E0,-1.390977383E0
5.599847501E0,-3.363538980E-1,-2.393919706E0,1.189072609E0
5.609940563E0,-2.546561956E-1,-2.059082747E0,2.002597809E0
5.620031739E0,9.450674057E-3,-1.499006510E0,4.236936569E-1
5.630121016E0,4.524574280E-1,-6.643354893E-1,-6.378459930E-2
5.640208700E0,6.205180883E-1,-2.204680443E-2,3.000068665E-2
5.650295100E0,5.245462656E-1,3.932800293E-1,-3.267593384E-1
5.660380433E0,2.124437094E-1,5.744867325E-1,-4.884405136E-1
5.670501569E0,-1.715940833E-1,3.921711445E-1,-6.507396698E-2
5.680620134E0,-3.863003850E-1,1.807825565E-1,3.349857330E-1
5.690737384E0,-4.578071833E-1,-2.267351151E-1,2.425127029E-1
5.700852424E0,-2.163305283E-1,-3.376786709E-1,2.177648544E-1
5.710965308E0,6.203925610E-2,-2.557003498E-1,-1.610670090E-1
5.721076233E0,2.044603825E-1,-4.848742485E-2,-4.860143661E-1
5.731185340E0,1.629827023E-1,1.128253937E-1,-3.261270523E-1
5.741292891E0,-1.417350769E-2,1.303451061E-1,4.256820679E-2
5.751398824E0,-2.226682901E-1,8.084964752E-2,2.914028168E-1
5.761504757E0,-2.931877971E-1,-4.341888428E-2,2.483348846E-1
5.771610757E0,-1.715267301E-1,-1.390931606E-1,7.180404663E-2
5.781716757E0,5.437731743E-3,-1.753325462E-1,-6.288528442E-3
5.791822623E0,1.883982420E-1,-1.423680782E-1,-5.908966064E-2
5.801928489E0,2.619947195E-1,-9.817600250E-2,-5.394172668E-2
5.812034155E0,2.426581383E-1,-7.139897346E-2,-2.401924133E-2
5.822139788E0,1.425116062E-1,-2.271127701E-2,-8.473682404E-2
5.832262821E0,3.707838058E-2,-4.131484032E-2,1.253604889E-2
5.842385687E0,1.802647114E-2,-5.498242378E-2,4.520130157E-2
5.852508487E0,2.752542496E-3,-3.898310661E-2,-5.125999451E-2
5.862631153E0,6.773626804E-2,-4.795360565E-2,-1.234560013E-1
5.872753619E0,9.225583076E-2,-7.418417931E-2,-2.237606049E-1
5.882875852E0,9.008419514E-2,-9.858536720E-2,-2.252311707E-1
5.892980852E0,8.144807816E-2,-1.480419636E-1,-9.916496277E-2
5.903085952E0,1.035172939E-1,-2.065725327E-1,-3.999710083E-3
5.914421971E0,1.357227564E-1,-1.536848545E-1,7.156753540E-2
5.924480971E0,1.361582279E-1,2.354192734E-2,2.141962051E-1
5.934541971E0,2.130097151E-1,7.199597359E-2,6.359100342E-3
5.944604471E0,2.652903795E-1,9.382390976E-2,-9.884071350E-2
5.954667137E0,2.291373014E-1,-5.669236183E-2,-1.074523926E-1
5.964729387E0,1.786822081E-1,-1.876485348E-1,5.039119720E-2
5.974791187E0,6.946706772E-2,-2.236266136E-1,4.615020752E-2
5.984852853E0,-4.680287838E-2,-1.541931629E-1,1.289939880E-2
5.994913995E0,-1.361062527E-1,-1.618862152E-4,4.097747803E-2
6.004974995E0,-1.396358013E-1,1.403815746E-1,3.477096558E-2
6.015035883E0,-1.570999622E-2,8.137035370E-2,-7.713699341E-2
6.025096483E0,7.763099670E-2,-1.156761646E-1,-1.382513046E-1
6.035157119E0,1.401156187E-1,-2.869868279E-1,-1.553783417E-1
6.045217869E0,1.747801304E-1,-2.888641357E-1,-8.787918091E-2
6.055279099E0,1.397223473E-1,-1.754860878E-1,-7.289218903E-2
6.065340456E0,1.071230173E-1,6.285285950E-2,1.323890686E-2
6.075443456E0,1.048355103E-1,3.621408939E-1,-8.408451080E-2
6.085543768E0,9.447920322E-2,4.912919998E-1,-1.537609100E-1
6.095641709E0,3.606653214E-2,4.641094208E-1,-6.565093994E-2
6.105737764E0,-3.634810448E-3,2.605979443E-1,-3.943824768E-2
6.115831974E0,-1.246380806E-2,1.014299393E-1,-3.190517426E-2
6.125924624E0,-3.849518299E-2,-5.823993683E-2,-2.101898193E-3
6.136015814E0,-3.350591660E-2,-1.206283569E-1,-2.681446075E-2
6.146105632E0,-4.027760029E-2,-1.397321224E-1,-3.472423553E-2
6.156229371E0,-4.435718060E-2,-1.204328537E-1,-1.216392517E-1
6.166350496E0,-6.813991070E-2,-1.469874382E-1,-5.299282074E-2
6.176469096E0,-8.879482746E-2,-1.512401104E-1,2.724170685E-2
6.186585596E0,-5.414390564E-2,-1.380658150E-1,1.020450592E-1
6.196700003E0,5.231177807E-2,-1.261265278E-1,6.388282776E-2
6.206812503E0,1.742192507E-1,-8.530092239E-2,-3.899955750E-2
6.216923227E0,2.569333315E-1,-7.144355774E-2,-1.693630219E-2
6.227032160E0,2.536807060E-1,-9.675836563E-2,2.000999451E-2
6.237140993E0,1.374459267E-1,-8.373022079E-2,-2.198123932E-2
6.247249659E0,-2.629673481E-2,-4.358506203E-2,4.863739014E-5
6.257358325E0,-1.761725545E-1,-2.897691727E-2,-4.368734360E-1
6.267467025E0,-2.297847271E-1,-4.339790344E-2,-2.726650238E-2
6.277575891E0,-2.131711841E-1,-8.394074440E-2,4.856681824E-2
6.287691824E0,-1.533293724E-1,-1.029791832E-1,1.326951981E-1
6.297807924E0,7.045388222E-3,-1.990659237E-1,2.097778320E-1
6.307924224E0,1.263488531E-1,-2.407927513E-1,-1.092405319E-1
6.318060890E0,1.741548777E-1,-1.490042210E-1,-3.165521622E-1
6.328197590E0,7.281255722E-2,-4.119873047E-2,-2.089843750E-1
6.338334323E0,-7.394206524E-2,1.000685692E-1,3.941535950E-2
6.348471023E0,-1.269730330E-1,1.547019482E-1,1.977853775E-1
6.358607389E0,-1.093679667E-1,1.481456757E-1,1.379566193E-1
6.368743622E0,-3.988647461E-2,1.172437668E-1,-9.258270264E-3
6.378858988E0,6.924879551E-2,1.240229607E-2,-7.359886169E-2
6.388974354E0,1.230148077E-1,-7.304668427E-2,-6.599140167E-2
6.399116254E0,9.843659401E-2,-1.098399162E-1,-2.676677704E-2
6.409258020E0,4.688513279E-2,-1.039001942E-1,1.001358032E-2
6.419399753E0,1.679527760E-2,-6.300783157E-2,-1.424789429E-3
6.429541486E0,2.051746845E-2,-1.810717583E-2,1.187324524E-3
6.439683319E0,3.955471516E-2,3.681111336E-2,-4.643630981E-2
6.449824952E0,7.583296299E-2,9.532761574E-2,9.262084961E-3
6.459939485E0,8.269619942E-2,1.237859726E-1,5.824756622E-2
6.470053851E0,6.076908112E-2,1.122086048E-1,-1.701450348E-2
6.480168117E0,4.118025303E-2,9.382748604E-2,-8.495044708E-2
6.490282150E0,-2.008795738E-3,6.424951553E-2,-4.969596863E-2
6.500396150E0,-1.299142838E-2,9.401559830E-3,5.284595490E-2
6.510510083E0,8.018732071E-3,-6.415748596E-2,4.770278931E-2
6.520623949E0,4.260504246E-2,-1.534056664E-1,1.824188232E-2
6.530737815E0,6.864225864E-2,-1.988725662E-1,-8.348941803E-2
6.540851848E0,9.273993969E-2,-2.022521496E-1,-7.551002502E-2
6.550965881E0,1.352962255E-1,-1.423454285E-1,-5.122184753E-3
6.561097514E0,1.447744370E-1,-6.486296654E-2,1.762580872E-2
6.571229147E0,1.084827185E-1,1.986026764E-4,-2.918624878E-2
6.581360680E0,7.963764668E-2,1.025891304E-2,-5.206394196E-2
6.591485180E0,1.997172832E-2,2.835512161E-2,1.945495605E-3
6.601609646E0,8.424282074E-3,1.125836372E-2,5.618953705E-2
6.611734046E0,3.767728806E-2,1.782226562E-2,1.055326462E-1
6.621838212E0,6.970191002E-2,-1.940917969E-2,7.556438446E-2
6.631942412E0,1.045240164E-1,-2.121067047E-2,5.973529816E-2
6.642073645E0,1.176869869E-1,-3.744721413E-2,3.194808960E-3
6.652204811E0,1.209250689E-1,-4.150247574E-2,6.629943848E-3
6.662335977E0,7.827663422E-2,-2.167391777E-2,6.995201111E-2
6.672467177E0,3.745448589E-2,-7.252693176E-3,7.086944580E-2
6.682598543E0,-1.792407036E-2,-2.277708054E-2,4.263305664E-2
6.692730043E0,8.084416389E-3,-4.132461548E-2,2.197265625E-3
6.702835109E0,4.395484924E-2,-3.820776939E-2,1.204681396E-2
6.712940275E0,2.775251865E-2,-2.505207062E-2,-4.346847534E-3
6.723045541E0,2.839601040E-2,-2.388119698E-2,-3.997802734E-3
6.733150874E0,2.911746502E-2,-2.328586578E-2,-3.868103027E-3
6.743256007E0,-3.462171555E-2,3.243684769E-3,4.397201538E-2
6.753361373E0,-7.394897938E-2,-2.278256416E-2,2.236557007E-2
6.763466839E0,-1.133474112E-1,-3.082513809E-3,8.535385132E-4
6.773572405E0,-1.173419952E-1,-1.564025879E-4,2.010345459E-2
6.783678071E0,-9.310185909E-2,4.143452644E-2,2.039337158E-2
6.793783837E0,-2.801752090E-2,2.044367790E-2,5.406379700E-2
6.803906870E0,4.956912994E-2,1.530933380E-2,5.860137939E-2
6.814029936E0,6.294441223E-2,-4.909753799E-3,5.357742310E-3
6.824153036E0,4.758644104E-2,-4.653382301E-2,-3.346633911E-2
6.834276236E0,3.610730171E-3,-2.209186554E-2,-2.150058746E-2
6.844399369E0,-2.840554714E-2,-2.757859230E-2,5.315589905E-2
6.854522669E0,-5.153250694E-2,-1.647090912E-2,1.086864471E-1
6.864628335E0,-3.641462326E-2,1.530456543E-2,5.137252808E-2
6.874734001E0,4.768729210E-3,-1.482009888E-2,-1.175212860E-2
6.884866101E0,6.394505501E-2,-1.180903912E-1,-2.104749680E-1
6.894998167E0,7.392179966E-2,-1.526250839E-1,-3.369235992E-2
6.905130467E0,4.829645157E-2,-1.720340252E-1,-8.742809296E-2
6.915262600E0,2.338361740E-2,-1.370134354E-1,2.765789032E-1
6.925394700E0,5.938363075E-2,-5.769252777E-2,1.471118927E-1
6.935526933E0,1.281077862E-1,3.806424141E-2,-8.019447327E-2
6.945631966E0,1.303572655E-1,1.129653454E-1,-7.175922394E-2
6.955737032E0,-8.976101875E-3,1.693451405E-1,-5.049705505E-2
6.965842232E0,-1.377165318E-1,1.825020313E-1,-2.017784119E-2
6.975947498E0,-1.632789373E-1,1.180074215E-1,3.332614899E-2
6.986052698E0,-1.117321253E-1,4.538583755E-2,8.586883545E-3
6.996157798E0,1.565682888E-2,4.759073257E-3,-8.155155182E-2
7.006263031E0,1.305871010E-1,-1.365065575E-2,-9.833812714E-2
7.016368364E0,1.453084946E-1,-5.215144157E-2,-6.522846222E-2
7.026474030E0,1.092193127E-1,-8.348703384E-2,-2.008914948E-2
7.036579630E0,4.140150547E-2,-9.745597839E-2,1.576995850E-2
7.046702730E0,-1.712954044E-2,-1.202864647E-1,1.601314545E-2
7.056825796E0,-6.606435776E-2,-8.076214790E-2,1.629352570E-2
7.066948829E0,-6.787908077E-2,-5.121731758E-2,1.891613007E-2
7.077071895E0,-2.210640907E-2,-3.156971931E-2,1.906204224E-2
7.087195095E0,4.271650314E-2,-3.366446495E-2,-9.581565857E-3
7.097318295E0,5.211305618E-2,-5.487775803E-2,-7.168579102E-2
7.107424395E0,5.655360222E-2,-6.126189232E-2,-1.149559021E-2
7.117530561E0,4.436838627E-2,7.387638092E-3,6.334209442E-2
7.128898971E0,7.273674011E-3,-2.969527245E-2,1.019487381E-1
7.138958971E0,-4.626512527E-2,-1.982855797E-2,-1.083374023E-3
7.149017971E0,-3.851962090E-2,-4.005885124E-2,4.633808136E-2
7.159077971E0,-1.965725422E-2,-5.102300644E-2,-2.835464478E-2
7.169137304E0,2.797853947E-2,-2.122688293E-2,-7.263183594E-3
7.179198054E0,5.731821060E-2,6.163668633E-2,3.781032562E-2
7.189258654E0,5.598163605E-2,5.319666862E-2,3.722095490E-2
7.199319487E0,1.842451096E-2,7.081937790E-2,7.838249207E-3
7.209380201E0,-1.938211918E-2,6.256413460E-2,1.217460632E-2
7.219441326E0,-1.420414448E-2,3.638601303E-2,2.415561676E-2
7.229502770E0,3.709793091E-4,2.535676956E-2,2.447414398E-2
7.239564570E0,7.872343063E-3,3.838706017E-2,7.988929749E-2
7.249626570E0,3.438043594E-2,2.481865883E-2,7.058334351E-2
7.259688736E0,4.887580872E-2,1.569628716E-2,1.087856293E-2
7.269752966E0,5.621469021E-2,2.374029160E-2,-1.276683807E-2
7.279817394E0,5.370962620E-2,1.788663864E-2,-2.691268921E-3
7.289922127E0,5.590736866E-2,-4.806351662E-2,9.702682495E-3
7.300024127E0,1.987588406E-2,-7.623720169E-2,2.428722382E-2
7.310123774E0,5.714297295E-3,-8.579301834E-2,3.280639648E-4
7.320221496E0,-1.310086250E-2,-7.661104202E-2,-6.929111481E-2
7.330317443E0,-3.654074669E-2,-4.591083527E-2,-8.387184143E-2
7.340411843E0,-2.689051628E-2,-1.056909561E-2,1.646614075E-2
7.350504890E0,3.028321266E-2,8.404254913E-4,1.390171051E-2
7.360596708E0,6.664454937E-2,-9.554624557E-3,-4.151916504E-2
7.370722968E0,1.252073050E-1,-1.961946487E-2,-6.098651886E-2
7.380846634E0,1.355984211E-1,-3.582215309E-2,-4.651737213E-2
7.390967914E0,7.823991776E-2,-6.116914749E-2,8.900642395E-3
7.401087029E0,-5.897879601E-3,-6.762909889E-2,7.145595551E-2
7.411203991E0,-6.837201118E-2,-6.047224998E-2,4.513740540E-2
7.421318991E0,-1.081929207E-1,-3.206849098E-2,2.096939087E-2
7.431432094E0,-9.744250774E-2,-4.895377159E-2,2.317523956E-2
7.441543460E0,-5.365443230E-2,-3.204965591E-2,-1.037502289E-2
7.451654826E0,-1.966595650E-2,-4.125261307E-2,-3.184413910E-2
7.461766192E0,-2.194738388E-2,-1.937246323E-2,-6.285953522E-2
7.471877492E0,4.230380058E-3,-6.763219833E-3,-2.669429779E-2
7.481988592E0,-2.947986126E-2,2.051162720E-2,2.404212952E-3
7.492099692E0,-4.884159565E-2,6.330966949E-3,2.165031433E-2
7.502210758E0,-3.883111477E-2,1.264071465E-2,-7.452011108E-3
7.512322658E0,-2.117121220E-2,2.078509331E-2,3.885269165E-3
7.522434458E0,-1.352477074E-2,2.241563797E-2,2.749156952E-2
7.532563324E0,1.061236858E-2,2.312946320E-2,2.533435822E-2
7.542692190E0,2.075600624E-2,-3.039574623E-2,7.132053375E-2
7.552820956E0,2.796804905E-2,-4.371142387E-2,4.057693481E-2
7.562949522E0,2.530550957E-2,-1.700139046E-2,-1.910781860E-2
7.573077122E0,8.471858501E-2,-1.775813103E-2,4.320144653E-3
7.583204555E0,7.863605022E-2,-8.866000175E-2,-1.588048935E-1
7.593311755E0,5.012345314E-2,-1.135597229E-1,3.510665894E-2
7.603418855E0,-3.179705143E-2,-7.115697861E-2,-5.904388428E-2
7.614772971E0,-4.198288918E-2,-5.822300911E-2,2.571210861E-1
7.624831971E0,6.143236160E-2,1.246070862E-2,9.623527527E-2
7.634890971E0,1.977488995E-1,6.973171234E-2,-9.288311005E-2
7.644950471E0,2.003340721E-1,1.319475174E-1,-6.229591370E-2
7.655011471E0,1.287668943E-1,1.714315414E-1,7.900238037E-3
7.665072971E0,-5.538618565E-2,1.458270550E-1,-6.224632263E-3
7.675134771E0,-1.571606398E-1,1.159410477E-1,7.664203644E-2
7.685197437E0,-1.253226995E-1,7.464456558E-2,2.808856964E-2
7.695260008E0,-4.426372051E-2,5.225181580E-3,-2.606296539E-2
7.705322883E0,7.868218422E-2,-4.932641983E-2,2.190494537E-2
7.715385994E0,1.227486134E-1,-1.067130566E-1,6.730556488E-2
7.725449194E0,1.185553074E-1,-1.329977512E-1,6.964588165E-2
7.735512012E0,5.634582043E-2,-1.451201439E-1,3.846263885E-2
7.745574845E0,-1.066160202E-2,-1.236531734E-1,-1.424312592E-2
7.755637460E0,-6.071197987E-2,-7.356643677E-2,-1.912975311E-2
7.765700174E0,-7.729828358E-2,-3.578543663E-2,-2.891826630E-2
7.775804907E0,-1.061271429E-1,-1.704478264E-2,-9.902954102E-3
7.785906907E0,-3.935027122E-2,-1.936411858E-2,-6.969928741E-2
7.796006612E0,-2.047562599E-2,-1.165008545E-2,-7.665443420E-2
7.806104167E0,-3.968119621E-3,-1.976537704E-2,2.446365356E-2
7.816199745E0,-1.107287407E-2,-3.913998604E-2,5.397319794E-2
7.826293845E0,1.625585556E-2,-4.206156731E-2,7.368659973E-2
7.836386559E0,5.748975277E-2,-6.980371475E-2,-2.393722534E-4
7.846477740E0,6.864273548E-2,-6.277036667E-2,-1.945495605E-4
7.856602522E0,5.074250698E-2,-3.963232040E-2,4.035377502E-2
7.866724897E0,3.092372417E-2,4.625558853E-3,-2.705097198E-2
7.876845097E0,1.938498020E-2,5.104517937E-2,3.221797943E-2
7.886963097E0,-3.257703781E-2,7.591056824E-2,5.553913116E-2
7.897078874E0,-8.221697807E-2,9.336709976E-2,1.414489746E-2
7.907192766E0,-8.675754070E-2,1.038997173E-1,-5.561828613E-3
7.917304972E0,-4.896008968E-2,9.888076782E-2,3.511810303E-2
7.927415505E0,3.591477871E-2,7.124638557E-2,3.807067871E-2
7.937526038E0,1.085559130E-1,2.274560928E-2,3.172397614E-2
7.947636604E0,1.163597107E-1,2.761840820E-3,-1.298141479E-2
7.957747237E0,7.870197296E-2,-5.306482315E-3,-2.179622650E-2
7.967857903E0,4.828453064E-2,-7.183551788E-4,1.272678375E-2
7.977968636E0,-5.459189415E-3,-8.020877838E-3,6.503105164E-3
7.988079102E0,-1.559233665E-2,-1.561546326E-2,1.926517487E-2
7.998189535E0,-4.498720169E-3,-4.552793503E-2,2.699756622E-2
8.008299835E0,6.808876991E-3,-5.165505409E-2,-6.054878235E-3
8.018427801E0,-1.318550110E-2,-7.648801804E-2,-1.737308502E-2
8.028555667E0,-1.197791100E-2,-6.278109550E-2,-2.856636047E-2
8.038683767E0,-1.211738586E-2,-6.883907318E-2,1.525211334E-2
8.048812067E0,3.214573860E-2,-7.087469101E-2,2.301406860E-2
8.058940533E0,1.640033722E-2,-5.860471725E-2,-3.865909576E-2
8.069068999E0,2.920043468E-2,-2.188348770E-2,-3.547859192E-2
8.079176665E0,2.454030514E-2,-3.191065788E-2,-2.700138092E-2
8.089284398E0,3.404426575E-2,-2.760171890E-3,-8.603096008E-3
8.100668971E0,3.935551643E-2,7.290601730E-3,-1.659297943E-2
8.110732971E0,1.948678493E-2,-1.864337921E-2,3.979682922E-3
8.120796971E0,2.621054649E-3,-6.481885910E-3,1.482105255E-2
8.130860971E0,-1.424837112E-2,1.253342628E-2,4.709243774E-2
8.140925971E0,-1.693522930E-2,-6.895065308E-3,4.581928253E-2
8.150990971E0,-1.480281353E-2,-1.486015320E-2,1.562595367E-2
8.161056371E0,8.987665176E-3,-1.125478745E-2,2.357959747E-2
8.171121204E0,2.093625069E-2,-5.106449127E-3,6.509208679E-2
8.181185632E0,3.731918335E-2,1.544451714E-2,3.005027771E-2
8.191250132E0,5.115687847E-2,2.173018456E-2,1.182365417E-2
8.201314798E0,4.109823704E-2,-3.921985626E-4,-3.892898560E-3
8.211379498E0,2.618801594E-2,-2.981305122E-2,-3.161430359E-2
8.221444316E0,9.378552437E-3,-1.890182495E-3,-7.620143890E-2
8.231509316E0,2.394437790E-3,-2.230477333E-2,-3.719043732E-2
8.241574239E0,-4.729032516E-3,-9.855270386E-3,-4.149723053E-2
8.251639239E0,-1.185286045E-2,-1.262855530E-2,-3.175544739E-2
8.261744572E0,1.444935799E-3,-1.096224785E-2,-1.960086823E-2
8.271847572E0,-1.510632038E-2,8.807182312E-4,1.447105408E-2
8.281948336E0,-4.897892475E-2,-1.042985916E-2,1.778697968E-2
8.292047113E0,3.368616104E-3,-6.742477417E-3,1.410465240E-1
8.302144323E0,1.313090324E-3,4.042148590E-3,-5.902767181E-2
8.312240073E0,5.813753605E-2,2.640366554E-2,-2.719879150E-2
8.322334596E0,6.848311424E-2,-6.554675102E-2,-1.518392563E-1
8.332427777E0,8.633267879E-2,-1.533861160E-1,6.950187683E-2
8.342554863E0,3.964006901E-2,-1.620962620E-1,2.032852173E-2
8.352679279E0,3.208756447E-3,-1.949188709E-1,2.014923096E-1
8.362801199E0,1.293385029E-2,-1.163663864E-1,2.005081177E-1
8.372920968E0,8.829295635E-2,6.993579865E-2,-9.117603302E-2
8.383038560E0,8.478736877E-2,2.282495499E-1,-2.826919556E-1
8.393154345E0,3.778612614E-2,2.857630253E-1,-1.256513596E-1
8.403268310E0,-6.184267998E-2,2.451994419E-1,6.461715698E-2
8.413380576E0,-1.224764585E-1,8.472537994E-2,1.769151688E-1
8.423492709E0,-8.938324451E-2,-3.796672821E-2,1.070156097E-1
8.433604675E0,-2.472996712E-3,-1.123015881E-1,-4.444122314E-3
8.443716375E0,9.706020355E-2,-1.117198467E-1,-4.090309143E-3
8.453827941E0,1.363964081E-1,-8.082151413E-2,2.474403381E-2
8.463939274E0,1.058866978E-1,-2.644705772E-2,-1.117897034E-2
8.474050674E0,3.950011730E-2,-2.759861946E-2,7.243442535E-2
8.484162107E0,6.973028183E-3,-5.042076111E-3,3.620433807E-2
8.494273373E0,-2.984178066E-2,-4.562187195E-2,-5.069637299E-2
8.504401973E0,-7.168221474E-2,-7.492303848E-2,1.044273376E-3
8.514530539E0,-5.747175217E-2,-8.520078659E-2,-2.131462097E-3
8.524658872E0,-1.300549507E-2,-5.974030495E-2,-1.722240448E-2
8.534787038E0,3.076004982E-2,-3.663253784E-2,-7.529163361E-2
8.544914971E0,7.699537277E-2,1.111340523E-2,-7.565402985E-2
8.555042804E0,7.802450657E-2,1.946568489E-2,-2.769279480E-2
8.565150304E0,4.106044769E-2,9.694814682E-3,1.341915131E-2
8.575257604E0,3.143537045E-2,-2.403044701E-2,4.960060120E-2
8.586568971E0,1.717579365E-2,-7.995462418E-2,1.130294800E-2
8.596630971E0,6.321072578E-3,-1.012029648E-1,5.415058136E-2
8.606696971E0,4.249632359E-2,-4.232001305E-2,-7.093524933E-2
8.616763471E0,4.892444611E-2,4.072260857E-2,-7.882022858E-2
8.626828471E0,1.559519768E-2,1.204462051E-1,-3.602123260E-2
8.636893471E0,-3.536212444E-2,1.338467598E-1,4.786205292E-2
8.646958471E0,-6.271076202E-2,1.210284233E-1,4.564476013E-2
8.657023804E0,-4.420006275E-2,4.610371590E-2,5.124092102E-3
8.667088661E0,-3.362894058E-3,2.932643890E-2,2.938270569E-2
8.677153036E0,6.166660786E-2,-2.458000183E-2,8.994770050E-2
8.687216924E0,7.862544060E-2,-3.761172295E-2,8.596038818E-2
8.697280824E0,6.928694248E-2,-2.499246597E-2,9.891510010E-3
8.707344642E0,3.175973892E-2,-1.551818848E-2,-9.064674377E-3
8.717408558E0,1.609122753E-2,1.343774796E-2,-2.555370331E-2
8.727472404E0,-2.357912064E-2,2.072811127E-3,-3.950214386E-2
8.737536046E0,1.283645630E-3,-2.115535736E-2,4.067420959E-3
8.747639912E0,1.436257362E-2,-2.268147469E-2,-9.795188904E-3
8.757741287E0,2.344000340E-2,-6.468915939E-2,-2.129745483E-2
8.767840345E0,3.744471073E-2,-8.268833160E-2,-3.279495239E-2
8.777937789E0,5.994319916E-3,-7.451486588E-2,-6.050109863E-3
8.788033473E0,1.760995388E-2,-8.346605301E-2,1.411437988E-3
8.798127673E0,1.481878757E-2,-5.455803871E-2,2.547645569E-2
8.808220625E0,9.602665901E-3,-3.522443771E-2,8.845329285E-3
8.818312443E0,1.370525360E-2,-2.791619301E-2,-3.649902344E-2
8.828437747E0,2.026534081E-2,-6.062507629E-3,-3.843307495E-4
8.838560580E0,1.724565029E-2,1.087355614E-2,1.892471313E-2
8.848681100E0,1.682543755E-2,1.804256439E-2,-4.960060120E-3
8.858799523E0,9.353876114E-3,2.269673347E-2,-2.573966980E-3
8.868915893E0,-7.585287094E-3,-1.789283752E-2,1.185894012E-2
8.879030500E0,8.885025978E-3,-2.222990990E-2,7.277488708E-3
8.889143327E0,-1.233935356E-3,4.611015320E-3,7.539749146E-3
8.899254627E0,2.424347401E-2,1.222872734E-2,-1.372337341E-2
8.909365827E0,3.287017345E-2,2.232599258E-2,1.054763794E-2
8.919476960E0,2.484226227E-2,-1.140117645E-3,-1.070308685E-2
8.929588093E0,2.932071686E-2,-1.478624344E-2,-1.518249512E-2
8.939699059E0,2.682924271E-3,-1.406741142E-2,-5.121231079E-4
8.949809825E0,2.171993256E-2,-3.075385094E-2,-4.835128784E-2
8.959920525E0,3.172457218E-2,-1.754450798E-2,-3.447151184E-2
8.970031325E0,2.488672733E-2,-6.582736969E-3,-3.489112854E-2
8.980142291E0,1.579141617E-2,1.226019859E-2,-6.380462646E-2
8.990271557E0,-5.383610725E-3,-1.609492302E-2,-1.104927063E-2
9.000400823E0,-7.411003113E-3,-3.944849968E-2,4.417705536E-2
9.010530189E0,9.686231613E-3,-5.114531517E-2,5.620098114E-2
9.020659555E0,1.806366444E-2,-2.029561996E-2,-4.223632812E-2
9.030789121E0,3.528153896E-2,-2.893233299E-2,-1.796541214E-1
9.040918854E0,2.854061127E-2,-1.336455345E-1,-2.941093445E-1
9.051028487E0,4.681348801E-2,-1.970624924E-1,1.951856613E-1
9.061138053E0,1.646876335E-2,-1.723887920E-1,1.277770996E-1
9.072527971E0,3.776621819E-2,-7.872557640E-2,1.504669189E-1
9.082588971E0,1.006964445E-1,8.354449272E-2,-1.198863983E-1
9.092650971E0,8.773720264E-2,2.303023338E-1,-3.049116135E-1
9.102710971E0,1.152610779E-2,3.373863697E-1,-2.115163803E-1
9.112771304E0,-1.029837132E-1,2.439544201E-1,-4.913806915E-2
9.122831304E0,-2.195348740E-1,8.893203735E-2,1.577329636E-1
9.132892104E0,-1.570117474E-1,-8.238697052E-2,1.661233902E-1
9.142953270E0,-2.363348007E-2,-1.390342712E-1,3.449249268E-2
9.153014270E0,1.002414227E-1,-1.254546642E-1,-4.026985168E-2
9.163075270E0,1.698561907E-1,-2.106714249E-2,-3.345966339E-2
9.173136158E0,1.022309065E-1,2.607440948E-2,-4.321956635E-2
9.183196958E0,1.616513729E-2,-9.992122650E-4,-1.716709137E-2
9.193257958E0,-3.332698345E-2,-2.594447136E-2,-8.068084717E-3
9.203318958E0,-4.342579842E-2,-7.781696320E-2,-4.482460022E-2
9.213379727E0,-2.956092358E-2,-1.150035858E-1,-3.119277954E-2
9.223440512E0,-3.389477730E-2,-1.057119370E-1,6.945610046E-3
9.233535578E0,-5.253553391E-4,-8.833408356E-2,-4.780769348E-3
9.243628203E0,2.759504318E-2,-5.432844162E-2,-5.479526520E-2
9.253718673E0,3.908228874E-2,-2.293968201E-2,-3.787040710E-2
9.263807395E0,5.557811260E-2,-1.298165321E-2,-1.135826111E-2
9.273894342E0,4.338777065E-2,-9.966850281E-3,-5.180454254E-2
9.283979792E0,9.564399719E-3,-5.034136772E-2,4.173183441E-2
9.294064125E0,7.190108299E-3,-6.169319153E-2,4.434680939E-2
9.304147352E0,7.205128670E-3,-5.449032784E-2,4.913902283E-2
9.314264525E0,2.009546757E-2,-1.555109024E-2,-3.955841064E-3
9.324387816E0,3.824365139E-2,8.369731903E-2,-8.654880524E-2
9.335660971E0,4.898345470E-2,1.340143681E-1,-3.249740601E-2
9.345723971E0,1.779198647E-3,1.621036530E-1,6.294059753E-2
9.355785971E0,-1.098287106E-2,1.185107231E-1,2.456855774E-2
9.365849971E0,-5.024719238E-2,8.925175667E-2,7.757186890E-3
9.375914304E0,-3.838980198E-2,3.448414803E-2,-1.127243042E-2
9.385977804E0,1.228368282E-2,4.220008850E-5,1.553630829E-2
9.396040204E0,5.277240276E-2,-7.562398911E-3,5.937290192E-2
9.406101870E0,8.999168873E-2,-5.420279503E-2,8.152675629E-2
9.416163155E0,5.337965488E-2,-3.425836563E-2,-6.672859192E-3
9.426224780E0,2.929592133E-2,-3.361868858E-2,-4.027366638E-3
9.436286335E0,4.597520828E-2,-3.024959564E-2,-3.478813171E-2
9.446347535E0,2.659821510E-2,-3.910279274E-2,-3.449535370E-2
9.456409262E0,-5.011916161E-3,-4.816198349E-2,-3.184413910E-2
9.466471178E0,-4.145658016E-2,-4.541778564E-2,-6.994819641E-2
9.476581947E0,-2.244019508E-2,-3.312563896E-2,-6.981182098E-2
9.486689089E0,-1.283872128E-2,-3.249692917E-2,4.533290863E-2
9.496793089E0,2.054488659E-2,-6.049776077E-2,6.476974487E-2
9.506894089E0,4.734897614E-2,-5.542564392E-2,2.649688721E-2
9.516992677E0,3.576540947E-2,-5.795478821E-2,-1.670360565E-2
9.527089177E0,3.376483917E-2,-1.693749428E-2,9.690284729E-3
9.537183755E0,1.916885376E-4,-4.384040833E-3,-4.456520081E-3
9.547276455E0,-4.011714458E-2,1.723098755E-2,-1.167201996E-2
9.557405835E0,-6.611883640E-2,1.449561119E-2,1.928138733E-2
9.567532016E0,-7.782423496E-2,4.045486450E-2,2.868366241E-2
9.577655407E0,-5.630147457E-2,2.349352837E-2,1.903724670E-2
9.587776032E0,-8.494138718E-3,2.624893188E-2,-1.194572449E-2
9.597894112E0,3.412353992E-2,-4.086017609E-3,-9.197235107E-3
9.608009881E0,4.801821709E-2,-1.031661034E-2,5.579948425E-3
9.618123399E0,5.238556862E-2,-1.201033592E-2,1.068401337E-2
9.628235006E0,6.664121151E-2,-1.677966118E-2,1.128196716E-3
9.638344730E0,4.031741619E-2,-9.586811066E-4,-4.470157623E-2
9.648452663E0,7.109880447E-3,3.373479843E-2,-5.236911774E-2
9.658560329E0,2.398991585E-2,5.687689781E-2,-9.581565857E-3
9.668667695E0,-1.883029938E-2,4.065060616E-2,2.169609070E-2
9.678774728E0,-1.606464386E-2,-1.096892357E-2,4.835796356E-2
9.688881561E0,1.009833813E-2,-3.662776947E-2,1.156663895E-1
9.698988461E0,2.154314518E-2,1.839637756E-3,3.273010254E-3
9.709095361E0,5.100524426E-2,1.139163971E-2,2.709960938E-2
9.719219561E0,6.048941612E-2,-4.616212845E-2,-2.494649887E-1
9.729343461E0,5.095219612E-2,-1.320798397E-1,-5.512046814E-2
9.739467261E0,2.852499485E-2,-1.184790134E-1,5.486392975E-2
9.749591027E0,-3.032314777E-2,-1.509842873E-1,1.626510620E-1
9.759714460E0,1.233255863E-2,-8.858299255E-2,9.470272064E-2
9.769837626E0,1.134911776E-1,4.182004929E-2,-7.532310486E-2
9.779939492E0,1.331990957E-1,2.355959415E-1,-1.690120697E-1
9.790041258E0,3.511452675E-2,2.807629108E-1,-1.056995392E-1
9.800169658E0,-1.076638699E-1,2.201042175E-1,-7.174015045E-2
9.810298091E0,-1.847362518E-1,9.467148781E-2,8.293533325E-2
9.820426491E0,-1.206754446E-1,-2.304697037E-2,1.181125641E-1
9.830554724E0,-2.941870689E-2,-8.458423615E-2,3.060054779E-2
9.840682890E0,5.984437466E-2,-1.096115112E-1,-5.043029785E-2
9.850811123E0,1.218843460E-1,-4.696750641E-2,-9.556770325E-3
9.860912689E0,7.992315292E-2,-1.762413979E-2,-6.759643555E-3
9.871014089E0,3.765726089E-2,1.414251328E-2,-3.981971741E-2
9.881115222E0,-2.830183506E-2,3.180503845E-4,-5.619239807E-2
9.891216255E0,-8.645343781E-2,-1.131439209E-2,-3.442192078E-2
9.901317288E0,-7.909560204E-2,-3.468775749E-2,3.040027618E-2
9.911418354E0,-5.515992641E-2,-5.279135704E-2,8.584499359E-2
9.921519387E0,2.152311802E-2,-7.745981216E-2,3.136920929E-2
9.931620453E0,7.204353809E-2,-6.122446060E-2,-3.263664246E-2
9.941721486E0,8.868658543E-2,-5.676484108E-2,-2.708625793E-2
9.951822586E0,6.696355343E-2,-1.363897324E-2,4.324531555E-2
9.961942152E0,2.185785770E-2,-1.860380173E-2,1.047134399E-2
9.972061652E0,1.860284805E-2,-4.580593109E-2,8.023071289E-2
9.982181218E0,2.277481556E-2,-8.037614822E-2,2.539157867E-2
9.992300818E0,3.782427311E-2,-7.571816444E-2,1.806068420E-2
1.000242025E1,4.226517677E-2,-3.388500214E-2,-1.825523376E-2
1.001253968E1,4.937028885E-2,1.943635941E-2,-8.830738068E-2
1.002264175E1,2.654981613E-2,8.787441254E-2,2.149581909E-3
1.003274388E1,-5.939841270E-3,1.354112625E-1,4.736518860E-2
1.004396997E1,-2.201759815E-2,1.277694702E-1,2.315807343E-2
1.005402797E1,-1.915264130E-2,9.867906570E-2,-3.376960754E-3
1.006409697E1,1.488912106E-2,5.623078346E-2,2.790641785E-2
1.007416197E1,4.941689968E-2,-6.420373917E-3,4.523849487E-2
1.008422497E1,7.440757751E-2,-1.354622841E-2,4.836654663E-2
1.009428747E1,6.549537182E-2,-6.880283356E-3,2.979469299E-2
1.010435007E1,3.504538536E-2,1.397228241E-2,-3.206253052E-3
1.011453457E1,7.222652435E-3,-5.603694916E-2,-5.535221100E-2
1.012610357E1,8.268117905E-3,-5.416154861E-2,-5.482578278E-2
1.013677997E1,9.372949600E-3,-5.225777626E-2,-5.429363251E-2
1.014684197E1,1.055848598E-2,-5.027008057E-2,-5.374622345E-2
1.015690197E1,1.174736023E-2,-4.821562767E-2,-5.317020416E-2
1.016696047E1,-1.765036583E-2,-7.097673416E-2,-4.102039337E-2
1.017701914E1,-5.625092983E-2,-8.887481689E-2,-1.640319824E-4
1.018707939E1,-6.116998196E-2,-4.255461693E-2,1.417636871E-2
1.019713899E1,-1.824760437E-2,-2.065157890E-2,3.553485870E-2
1.020730232E1,-1.591718197E-2,1.213073730E-3,5.686473846E-2
1.021745075E1,-1.397967339E-2,4.467964172E-3,3.056430817E-2
1.022758837E1,-1.490819454E-2,9.469985962E-4,1.645088196E-2
1.023771748E1,-2.788150311E-2,-3.390288353E-2,7.061004639E-3
1.024783978E1,-2.147972584E-2,-3.550219536E-2,1.430320740E-2
1.025795651E1,-1.206755638E-3,-2.762198448E-2,4.312992096E-2
1.026806834E1,-1.468193531E-2,-1.253128052E-2,7.352828979E-3
1.027817627E1,8.690357208E-5,-5.483627319E-5,-3.082752228E-2
1.028833905E1,1.232302189E-2,-4.220724106E-3,2.921676636E-2
1.029849492E1,1.946604252E-2,-6.044626236E-3,7.881164551E-3
1.030864573E1,4.088366032E-2,1.269578934E-2,5.664825439E-4
1.031879144E1,5.306518078E-2,-3.057241440E-3,1.679134369E-2
1.032893249E1,2.772152424E-2,2.399349213E-2,-3.902721405E-2
1.033906944E1,-1.973628998E-3,2.027153969E-2,-3.492259979E-2
1.034920279E1,-2.437031269E-2,5.354952812E-2,-1.368331909E-2
1.035933288E1,-4.435050488E-2,3.499007225E-2,4.137897491E-2
1.036946006E1,-3.131949902E-2,8.698225021E-3,1.346178055E-1
1.037958467E1,1.257252693E-2,1.768255234E-2,-2.851676941E-2
1.038970688E1,1.960706711E-2,-3.576278687E-6,6.181049347E-2
1.039982680E1,4.002249241E-2,-3.669023514E-2,-1.289968491E-1
1.040994461E1,4.441261292E-2,-1.195473671E-1,-9.596347809E-2
1.042006038E1,-1.478409767E-2,-1.092333794E-1,-7.630729675E-2
1.043017470E1,-7.665097713E-2,-1.110606194E-1,9.090614319E-2
1.044028729E1,-2.335679531E-2,-1.085157394E-1,2.056007385E-1
1.045041586E1,7.417893410E-2,1.758313179E-2,1.041698456E-2
1.046054439E1,1.256371737E-1,1.666781902E-1,-1.533727646E-1
1.047067306E1,1.085932255E-1,2.310960293E-1,-6.243228912E-2
1.048080179E1,-3.639733791E-2,1.925652027E-1,1.648902893E-3
1.049093035E1,-1.353737116E-1,9.728860855E-2,1.204013824E-2
1.050105902E1,-1.157025099E-1,2.737522125E-2,8.294677734E-2
1.051116702E1,-6.279230118E-2,-1.472187042E-2,4.103946686E-2
1.052127515E1,5.629420280E-3,-3.692150116E-2,-1.838016510E-2
1.053209597E1,6.520462036E-2,-4.841351509E-2,-4.136085510E-3
1.054215397E1,6.948959827E-2,-4.575681686E-2,1.963710785E-2
1.055221397E1,4.724550247E-2,-6.174254417E-2,3.643798828E-2
1.056227497E1,8.059978485E-3,-6.318998337E-2,-2.089118958E-2
1.057233564E1,-1.875221729E-2,-5.988025665E-2,-4.716205597E-2
1.058239639E1,-4.548561573E-2,-5.667877197E-2,-4.954242706E-2
1.059245739E1,-7.236981392E-2,-3.652954102E-2,-3.507232666E-2
1.060251839E1,-6.869471073E-2,-1.872110367E-2,-1.092815399E-2
1.061257910E1,-4.130744934E-2,-1.739168167E-2,-5.847835541E-2
1.062263973E1,-9.137511253E-3,-3.013682365E-2,-7.000637054E-2
1.063270028E1,2.756559849E-2,-1.846981049E-2,-3.105258942E-2
1.064276098E1,4.949331284E-2,-5.853891373E-3,-6.591892242E-2
1.065282144E1,5.394375324E-2,-1.948094368E-2,1.394271851E-2
1.066288194E1,5.165803432E-2,1.207804680E-2,-2.368354797E-2
1.067294324E1,3.456723690E-2,-3.199815750E-3,-2.103519440E-2
1.068300460E1,2.014243603E-2,3.130912781E-2,5.341529846E-3
1.069310773E1,3.957450390E-2,3.929972649E-2,-2.345943451E-2
1.070320848E1,5.270540714E-2,1.100523472E-1,1.154003143E-1
1.071330695E1,-3.838133812E-2,1.019368172E-1,6.534099579E-2
1.072340328E1,-1.042687893E-1,6.423354149E-2,2.470397949E-2
1.073349776E1,-1.003401279E-1,3.444695473E-2,3.216457367E-2
1.074359041E1,-5.083978176E-2,1.068329811E-2,2.569961548E-2
1.075368141E1,1.275968552E-2,-1.971244812E-2,4.102039337E-2
1.076377095E1,1.072503328E-1,-2.612757683E-2,5.399131775E-2
1.077389465E1,1.177294254E-1,-5.228734016E-2,5.720233917E-2
1.078401569E1,7.044744492E-2,-4.292178154E-2,2.918624878E-2
1.079413457E1,-1.304590702E-2,-3.598618507E-2,3.950786591E-2
1.080425118E1,-4.386889935E-2,-3.403067589E-2,1.863479614E-2
1.081436566E1,-3.376698494E-2,-2.038693428E-2,-9.554862976E-3
1.082447824E1,1.243627071E-2,-3.831720352E-2,-1.159667969E-2
1.083458906E1,-5.675792694E-3,-3.510761261E-2,-5.453395844E-2
1.084469830E1,-3.535318375E-2,-2.963757515E-2,-3.293132782E-2
1.085480760E1,-6.284201145E-2,-3.612256050E-2,3.898239136E-2
1.086491700E1,-4.987072945E-2,-6.940126419E-2,5.416870117E-3
1.087502640E1,-4.171228409E-2,-4.795885086E-2,1.003646851E-2
1.088513596E1,-5.990624428E-2,-2.867555618E-2,1.234912872E-2
1.089524553E1,-2.799975872E-2,-2.342772484E-2,5.229949951E-3
1.090535509E1,-5.951046944E-3,-3.587245941E-3,2.696323395E-2
1.091546509E1,5.965828896E-3,-2.707314491E-2,5.347347260E-2
1.092557519E1,3.669857979E-3,-7.689237595E-3,2.481460571E-2
1.093570313E1,-3.094911575E-3,-7.710695267E-3,8.087158203E-4
1.094583116E1,2.185821533E-3,-1.011705399E-2,2.468109131E-2
1.095595933E1,-1.666736603E-2,-2.652883530E-3,1.037788391E-2
1.096608763E1,-3.814530373E-2,-4.808425903E-3,-1.109027863E-2
1.097621569E1,-1.401233673E-2,2.673363686E-2,-2.293491364E-2
1.098634379E1,7.519841194E-3,-1.838612556E-2,1.790523529E-2
1.099645099E1,3.607535362E-2,1.748156548E-2,4.185295105E-2
1.100655813E1,3.179442883E-2,2.623987198E-2,-4.004478455E-3
1.101669203E1,1.395416260E-2,2.507519722E-2,-3.573131561E-2
1.102682599E1,2.247488499E-2,3.573656082E-3,7.203102112E-3
1.103696082E1,1.173818111E-2,-4.921197891E-3,2.648353577E-3
1.104709576E1,1.519072056E-2,-1.129412651E-2,6.265735626E-2
1.105723072E1,1.448988914E-3,-1.138424873E-2,1.032438278E-1
1.106736566E1,-2.129757404E-2,2.398681641E-2,-6.949615479E-2
1.107747346E1,3.442549706E-2,3.778934479E-4,-8.407592773E-3
1.108758126E1,5.945754051E-2,-8.843564987E-2,-1.016836166E-1
1.109768889E1,5.116486549E-2,-1.024439335E-1,1.236600876E-1
1.110779666E1,-1.376032829E-3,-1.280605793E-1,-6.850337982E-2
1.111790506E1,-5.192923546E-2,-1.246063709E-1,2.234535217E-1
1.112801349E1,-2.210581303E-2,-7.598352432E-2,1.841573715E-1
1.113812195E1,9.354138374E-2,6.431674957E-2,-7.955074310E-2
1.114823035E1,1.063147783E-1,2.068452835E-1,-1.859359741E-1
1.115833999E1,1.992595196E-2,2.629656792E-1,1.800632477E-2
1.116844955E1,-1.259530783E-1,1.754708290E-1,4.679679871E-2
1.117858022E1,-1.673856974E-1,7.602262497E-2,7.897186279E-2
1.118871065E1,-1.228727102E-1,3.516912460E-3,6.830406189E-2
1.119884109E1,2.963316441E-2,-1.706433296E-2,-5.040454865E-2
1.120897152E1,1.041510105E-1,-3.388738632E-2,-6.814956665E-3
1.121910155E1,1.141567230E-1,-2.248573303E-2,3.657722473E-2
1.122923152E1,7.593095303E-2,-5.917978287E-2,2.965927124E-2
1.123934362E1,6.250262260E-3,-6.506657600E-2,1.548862457E-2
1.124945548E1,-6.818449497E-2,-6.597161293E-2,-1.298332214E-2
1.125959442E1,-9.492969513E-2,-7.413220406E-2,-2.469539642E-2
1.126973318E1,-1.011668444E-1,-6.782650948E-2,-2.715110779E-3
1.127987202E1,-3.648030758E-2,-6.131672859E-2,3.381824493E-2
1.129001085E1,4.005432129E-3,-6.690788269E-2,2.485179901E-2
1.130014981E1,5.155456066E-2,-5.147647858E-2,6.130218506E-3
1.131028878E1,8.215236664E-2,-3.627657890E-2,-2.941036224E-2
1.132040095E1,9.128654003E-2,-2.543282509E-2,2.233505249E-3
1.133051295E1,1.020264626E-2,-1.445126534E-2,3.143692017E-2
1.134062398E1,-2.778291702E-3,-1.346516609E-2,8.189678192E-2
1.135073488E1,-4.252445698E-2,-1.364088058E-2,-2.842330933E-2
1.136084568E1,-3.351414204E-2,-1.166820526E-3,3.081321716E-2
1.137095648E1,-6.362438202E-3,1.579093933E-2,6.272315979E-3
1.138106721E1,4.256427288E-2,9.519743919E-2,-2.301311493E-2
1.139117798E1,5.651891232E-2,1.155378819E-1,1.012039185E-2
1.140128908E1,1.769149303E-2,1.052174568E-1,1.709938049E-2
1.141140008E1,-2.624940872E-2,9.023308754E-2,2.177047729E-2
1.142152858E1,-4.861342907E-2,6.141114235E-2,2.946853638E-4
1.143165694E1,-1.603341103E-2,3.783702850E-4,2.959060669E-2
1.144178528E1,9.487986565E-3,-2.266168594E-3,5.202674866E-2
1.145191348E1,5.864214897E-2,-1.928234100E-2,5.295467377E-2
1.146204034E1,3.559601307E-2,-7.997274399E-3,1.785945892E-2
1.147216714E1,1.500022411E-2,-6.453514099E-3,-1.011848450E-2
1.148227284E1,1.111447811E-2,-1.917624474E-2,-1.889991760E-2
1.149237958E1,1.962268353E-2,-3.638887405E-2,-1.086616516E-2
1.150251341E1,1.654791832E-2,-3.230404854E-2,6.599426270E-3
1.151264724E1,-1.730203629E-2,-4.775977135E-2,-4.849433899E-3
1.152278111E1,-1.964759827E-2,-8.500909805E-2,-3.319835663E-2
1.153291491E1,-4.369592667E-2,-8.414173126E-2,-2.329063416E-2
1.154304867E1,-3.185486794E-2,-7.611036301E-2,3.374099731E-3
1.155318244E1,-3.733110428E-2,-6.603646278E-2,2.519416809E-2
1.156328911E1,2.860784531E-3,-3.697562218E-2,1.580715179E-2
1.157339581E1,-1.919651031E-2,-1.761054993E-2,-3.204345703E-3
1.158350231E1,-6.803274155E-4,-1.264381409E-2,1.370620728E-2
1.159360864E1,-8.709907532E-3,9.242296219E-3,6.757736206E-3
1.160371474E1,-1.158714294E-4,-2.339601517E-3,4.773044586E-2
1.161382074E1,-8.474588394E-4,5.027770996E-3,3.831768036E-2
1.162392650E1,2.473711967E-2,1.004052162E-2,1.934623718E-2
1.163403230E1,1.180934906E-2,8.039712906E-3,-2.108573914E-2
1.164413814E1,-1.435399055E-3,2.324008942E-2,-6.245613098E-3
1.165424394E1,-6.593465805E-4,-6.999731064E-3,8.657455444E-3
1.166436710E1,-2.849078178E-2,-4.334211349E-3,3.289604187E-2
1.167449040E1,-1.999759674E-2,-2.179884911E-2,-1.270961761E-2
1.168461384E1,3.001415730E-2,1.995062828E-2,-4.668617249E-2
1.169473727E1,3.941607475E-2,2.892374992E-2,-3.012657166E-2
1.170486037E1,1.970458031E-2,2.260804176E-2,1.815032959E-2
1.171498330E1,2.886307240E-2,9.689569473E-3,4.986000061E-2
1.172508810E1,2.146947384E-2,-1.342487335E-2,1.004724503E-1
1.173519284E1,7.111191750E-3,-1.817727089E-2,5.259990692E-2
1.174532467E1,2.461731434E-2,6.961822510E-4,-6.491851807E-2
1.175545660E1,2.430725098E-2,-2.663111687E-2,-7.992267609E-2
1.176558877E1,3.582370281E-2,-1.209943295E-1,-1.364879608E-1
1.177572083E1,2.343690395E-2,-1.514129639E-1,1.394824982E-1
1.178585277E1,-1.797616482E-2,-1.583094597E-1,2.627563477E-2
1.179598360E1,-9.091973305E-3,-1.271893978E-1,1.910047531E-1
1.180608720E1,4.324054718E-2,-7.937192917E-3,3.653621674E-2
1.181619070E1,9.931182861E-2,1.613278389E-1,-2.363910675E-1
1.182629410E1,8.544921875E-2,2.886464596E-1,-2.173690796E-1
1.183639753E1,-2.068734169E-2,2.939143181E-1,-2.826499939E-2
1.184650107E1,-1.166843176E-1,1.608612537E-1,9.750652313E-2
1.185660473E1,-1.528898478E-1,1.645660400E-2,1.564760208E-1
1.186670816E1,-9.774279594E-2,-5.953454971E-2,6.658649445E-2
1.187681156E1,1.340317726E-2,-8.183240891E-2,-1.195716858E-2
1.188691523E1,1.296967268E-1,-4.751396179E-2,-2.269744873E-3
1.189701886E1,1.517049074E-1,-3.024625778E-2,1.940155029E-2
1.190714006E1,7.711601257E-2,-2.282452583E-2,3.852844238E-4
1.191726113E1,5.018591881E-3,-4.944396019E-2,-3.799057007E-2
1.192738226E1,-7.597827911E-2,-5.698513985E-2,-2.381038666E-2
1.193750333E1,-8.503210545E-2,-8.338880539E-2,-9.537696838E-3
1.194762433E1,-8.759295940E-2,-8.320784569E-2,2.521514893E-3
1.195774536E1,-5.026137829E-2,-9.000420570E-2,3.152084351E-2
1.196784913E1,-4.209089279E-2,-6.064915657E-2,1.038837433E-2
1.197795273E1,-5.595803261E-3,-3.862810135E-2,-2.989864349E-2
1.198808343E1,1.924633980E-2,-3.318977356E-2,-4.622364044E-2
1.199821406E1,3.736758232E-2,-5.635976791E-3,-1.451492310E-2
1.200834486E1,1.912581921E-2,-1.861739159E-2,5.322647095E-2
1.201847613E1,5.833983421E-3,-2.677845955E-2,5.631446838E-2
1.202860743E1,-1.244676113E-2,-6.287288666E-2,6.363391876E-2
1.203873876E1,8.631944656E-3,-4.837751389E-2,6.079387665E-2
1.204884293E1,3.392231464E-2,1.997923851E-2,-6.211566925E-2
1.205894713E1,4.876446724E-2,7.716488838E-2,-4.367923737E-2
1.206905106E1,2.318990231E-2,1.311764717E-1,2.079868317E-2
1.207915499E1,-2.702879906E-2,1.429226398E-1,3.060817719E-2
1.208925906E1,-4.620110989E-2,9.925127029E-2,3.311920166E-2
1.209936316E1,-4.799246788E-2,6.528735161E-2,1.404476166E-2
1.210946719E1,1.007795334E-3,2.733302116E-2,2.392292023E-2
1.211957126E1,4.751193523E-2,-9.667873383E-3,3.176879883E-2
1.212967562E1,8.398616314E-2,1.394271851E-3,1.340866089E-2
1.213977992E1,8.193361759E-2,9.860277176E-3,2.133941650E-2
1.214990236E1,3.937351704E-2,2.528166771E-2,-9.147644043E-3
1.216002489E1,3.778398037E-2,-7.393598557E-3,9.546279907E-4
1.217014772E1,2.685785294E-2,-6.377696991E-3,6.299018860E-3
1.218027066E1,6.419777870E-3,-5.097150803E-2,-3.389835358E-2
1.219039569E1,3.942251205E-4,-3.804111481E-2,-1.901245117E-2
1.220052082E1,-1.992809772E-2,-7.027530670E-2,-1.598834991E-2
1.221062839E1,-1.859974861E-2,-5.951213837E-2,-5.831718445E-3
1.222073602E1,-2.193355560E-2,-5.385327339E-2,1.377105713E-2
1.223216497E1,-1.787269115E-2,-3.914141655E-2,2.836322784E-2
1.224222297E1,1.965236664E-2,-1.759386063E-2,2.607727051E-2
1.225228297E1,3.321039677E-2,-1.247525215E-2,9.549140930E-3
1.226234247E1,3.256654739E-2,6.103515625E-5,-2.127933502E-2
1.227240180E1,5.386459827E-2,1.041555405E-2,1.734733582E-2
1.228246130E1,2.000010014E-2,-9.629726410E-4,1.282405853E-2
1.229252130E1,-4.400253296E-3,4.158020020E-3,-2.290439606E-2
1.230258164E1,-1.661121845E-2,-1.207756996E-2,-5.140972137E-2
1.231264164E1,-7.104873657E-3,-6.361722946E-3,2.076625824E-2
1.232270214E1,-1.933228970E-2,-3.163909912E-2,2.837371826E-2
1.233276247E1,4.192829132E-3,-9.967327118E-3,3.565788269E-2
1.234282257E1,-2.003455162E-2,-2.068114281E-2,1.373291016E-2
1.235288221E1,2.078187466E-2,-5.802392960E-3,-1.091480255E-2
1.236295929E1,2.579331398E-2,2.883434296E-2,-3.296184540E-2
1.237303514E1,3.070855141E-2,2.885389328E-2,-2.818298340E-2
1.238310992E1,-7.370114326E-3,1.530814171E-2,3.210067749E-3
1.239321845E1,2.816319466E-3,-1.750040054E-2,1.087312698E-1
1.240332383E1,-2.285718918E-2,-1.011729240E-2,-3.254413605E-2
1.241342665E1,4.936456680E-4,-5.692243576E-3,3.890132904E-2
1.242352698E1,-1.597511768E-2,-5.211067200E-2,-2.475957870E-1
1.243362530E1,-8.334994316E-3,-1.522679329E-1,-1.418542862E-1
1.244372180E1,1.297199726E-2,-2.087507248E-1,1.425695419E-1
1.245381670E1,4.102110863E-2,-1.930768490E-1,1.904792786E-1
1.246391016E1,7.756733894E-2,-9.487152100E-2,7.200145721E-2
1.247525097E1,1.158108711E-1,8.186841011E-2,-1.866130829E-1
1.248531297E1,7.463848591E-2,2.047669888E-1,-2.801799774E-1
1.249544397E1,-5.848515034E-2,2.650103569E-1,-1.425065994E-1
1.250553847E1,-1.625235081E-1,1.736361980E-1,-4.619026184E-2
1.251562114E1,-2.294570208E-1,2.899527550E-2,1.263809204E-2
1.252569964E1,-1.074199677E-1,-8.226251602E-2,6.665134430E-2
1.253577524E1,4.159855843E-2,-1.060910225E-1,1.720714569E-2
1.254584890E1,1.554766893E-1,-9.323954582E-2,-3.293514252E-2
1.255592062E1,1.607971191E-1,-6.719636917E-2,-2.114391327E-2
1.256599149E1,5.497992039E-2,-7.842540741E-3,-6.196403503E-2
1.257606182E1,-4.101455212E-2,-4.652166367E-2,-1.418399811E-2
1.258613152E1,-7.403635979E-2,-4.242563248E-2,-1.689910889E-2
1.259620071E1,-7.750856876E-2,-4.840517044E-2,-2.469444275E-2
1.260626929E1,-5.203211308E-2,-7.374191284E-2,-1.104736328E-2
1.261633814E1,-1.996505260E-2,-4.346776009E-2,-1.387882233E-2
1.262640649E1,1.096951962E-2,-6.970143318E-2,-1.381683350E-2
1.263650962E1,3.196513653E-2,-5.712008476E-2,-3.506565094E-2
1.264661019E1,6.300854683E-2,-3.079295158E-2,-3.266429901E-2
1.265670842E1,3.447210789E-2,-1.414775848E-2,-1.597309113E-2
1.266680470E1,2.257418633E-2,-3.135752678E-2,-3.290653229E-2
1.267689917E1,1.103854179E-2,-2.683615685E-2,7.946395874E-2
1.268699192E1,4.824042320E-3,-2.682137489E-2,5.539512634E-2
1.269708316E1,1.220059395E-2,-6.703615189E-3,8.118534088E-2
1.270717307E1,3.279399872E-2,1.653313637E-2,-6.825160980E-2
1.271729707E1,3.463613987E-2,9.440898895E-2,-8.382129669E-2
1.272741844E1,2.356719971E-2,1.285529137E-1,1.604080200E-3
1.273753764E1,-2.848660946E-2,1.188693047E-1,1.105880737E-2
1.274765461E1,-3.845155239E-2,7.829260826E-2,2.073383331E-2
1.275776949E1,-2.699530125E-2,4.487538338E-2,-1.028442383E-2
1.276788260E1,1.362347603E-2,5.048990250E-3,-7.560729980E-3
1.277799405E1,6.175911427E-2,-1.467442513E-2,3.376865387E-2
1.278810391E1,7.625794411E-2,-3.861713409E-2,3.701305389E-2
1.279821145E1,-9.754657745E-3,-1.507639885E-2,-4.129505157E-2
1.280831905E1,-1.233632565E-1,-6.528091431E-2,-2.225370407E-1
1.281842665E1,-1.088867188E-1,-1.502878666E-1,-2.634725571E-1
1.282853405E1,1.850795746E-2,-2.932074070E-1,-7.836627960E-2
1.283864125E1,2.768286467E-1,-4.338040352E-1,1.041030884E-1
1.284874835E1,5.168359280E-1,-5.715615749E-1,6.961822510E-2
1.285885571E1,7.105221748E-1,-5.190932751E-1,-5.238914490E-2
1.286896288E1,7.965948582E-1,-2.223949432E-1,-3.943157196E-2
1.287908748E1,4.925091267E-1,2.163510323E-1,4.388999939E-2
1.288921208E1,-5.429506302E-2,5.666251183E-1,5.978012085E-2
1.289933661E1,-5.409305692E-1,7.681808472E-1,2.347850800E-2
1.290946118E1,-8.802012801E-1,7.583539486E-1,-2.402591705E-2
1.291958531E1,-8.758561015E-1,5.712862015E-1,-7.066726685E-3
1.292970934E1,-5.996437669E-1,3.191747665E-1,9.584426880E-3
1.293981578E1,-2.099990845E-1,3.441572189E-2,-1.664257050E-2
1.294992214E1,8.645045757E-2,-2.203674316E-1,-9.869098663E-2
1.296112497E1,1.910868883E-1,-3.733007908E-1,-1.332445145E-1
1.297119097E1,1.912449598E-1,-4.387290478E-1,-2.315902710E-2
1.298130097E1,1.265218258E-1,-3.496272564E-1,3.388118744E-2
1.299138747E1,-3.735780716E-3,-1.953642368E-1,6.131076813E-2
1.300146514E1,-8.151888847E-2,-1.142477989E-2,2.597713470E-2
1.301153889E1,-1.350191832E-1,9.827828407E-2,1.754760742E-4
1.302160989E1,-1.983460784E-1,1.381306648E-1,2.977371216E-3
1.303168089E1,-2.134782672E-1,8.358597755E-2,2.451515198E-2
1.304175032E1,-1.608209610E-1,2.393341064E-2,-8.105182648E-2
1.305181882E1,-5.611431599E-2,-6.209063530E-2,1.186466217E-2
1.306188637E1,2.842259407E-2,-1.062347889E-1,-8.737468719E-2
1.307195357E1,9.261441231E-2,-1.824731827E-1,-1.200819016E-1
1.308202039E1,2.770531178E-2,-1.816301346E-1,-7.798194885E-3
1.309208697E1,-3.994119167E-2,-2.080829144E-1,1.678991318E-1
1.310215382E1,-2.821612358E-2,-1.886892319E-1,2.377471924E-1
1.311222017E1,1.179337502E-2,-1.026413441E-1,3.997039795E-2
1.312232171E1,7.018256187E-2,3.407597542E-2,-1.183395386E-1
1.313242089E1,5.152392387E-2,2.032551765E-1,-1.225690842E-1
1.314251795E1,-4.405367374E-2,2.979722023E-1,-5.085563660E-2
1.315261306E1,-1.323728561E-1,2.998754978E-1,9.885120392E-2
1.316270638E1,-1.257128716E-1,2.587950230E-1,2.510929108E-1
1.317279818E1,-1.043000221E-1,1.794273853E-1,1.653823853E-1
1.318288837E1,-9.892582893E-3,1.002798080E-1,1.505498886E-1
1.319297723E1,2.223575115E-2,-1.037502289E-2,1.164274216E-1
1.320310010E1,1.250541210E-2,-1.133401394E-1,1.017866135E-1
1.321322048E1,-6.013107300E-2,-2.044649124E-1,7.759952545E-2
1.322333872E1,-1.108678579E-1,-2.267251015E-1,1.485252380E-2
1.323345475E1,-2.241326571E-1,-1.824691296E-1,-1.932239532E-2
1.324356886E1,-2.474005222E-1,-1.210203171E-1,-1.491165161E-2
1.325368126E1,-2.049698234E-1,-1.543378830E-2,2.117061615E-2
1.326379201E1,-1.273989677E-1,5.705285072E-2,5.031871796E-2
1.327390125E1,-1.558065414E-3,5.744624138E-2,2.707481384E-3
1.328400878E1,8.673202991E-2,4.564571381E-2,-1.634883881E-2
1.329411628E1,1.102414131E-1,2.461242676E-2,5.572032928E-2
1.330422375E1,6.305170059E-2,-5.479335785E-3,4.673194885E-2
1.331433105E1,-5.157279968E-2,-3.820443153E-2,5.446243286E-2
1.332443811E1,-1.734452844E-1,-6.938147545E-2,1.639747620E-2
1.333454465E1,-2.381170988E-1,-3.506016731E-2,3.525161743E-2
1.334465211E1,-2.145677209E-1,6.411075592E-4,7.053852081E-2
1.335475951E1,-1.367030144E-1,2.422070503E-2,6.994628906E-2
1.336488431E1,-9.763002396E-3,2.914810181E-2,5.503177643E-2
1.337500894E1,6.981027126E-2,-4.071235657E-3,-4.368400574E-2
1.338513348E1,5.090343952E-2,-8.700370789E-3,-2.509307861E-2
1.339525784E1,2.034246922E-2,-1.305222511E-2,-2.798557281E-2
1.340538184E1,-6.623125076E-2,2.636384964E-2,-4.487895966E-2
1.341550574E1,-1.297618151E-1,7.979106903E-2,8.524894714E-3
1.342561181E1,-1.290532351E-1,8.905410767E-2,1.534509659E-1
1.343571771E1,-9.032368660E-2,6.241607666E-2,8.772850037E-2
1.344585044E1,-7.466804981E-2,-7.798194885E-3,-4.611968994E-3
1.345598311E1,-7.005870342E-2,-9.927082062E-2,-1.592082977E-1
1.346611604E1,-2.165591717E-2,-1.468980312E-1,-9.813594818E-2
1.347624887E1,4.609823227E-3,-8.366560936E-2,-5.587291718E-2
1.348638181E1,3.746891022E-2,-3.746271133E-3,1.038360596E-2
1.349651474E1,5.718994141E-2,1.356434822E-2,2.434730530E-3
1.350662067E1,8.648836613E-2,5.963683128E-2,1.118173599E-1
1.351672657E1,3.380560875E-2,6.733322144E-2,-7.323551178E-2
1.352684934E1,-8.611202240E-3,4.641294479E-2,-8.355426788E-2
1.353697204E1,-4.014718533E-2,1.023793221E-2,2.292633057E-3
1.354709457E1,-5.467009544E-2,6.156921387E-3,5.974388123E-2
1.355721687E1,-3.089582920E-2,4.519748688E-2,7.650947571E-2
1.356733897E1,-5.815327168E-2,3.585648537E-2,5.009460449E-2
1.357746097E1,-3.994870186E-2,4.112505913E-2,1.180839539E-2
1.358758347E1,-1.719844341E-2,3.211307526E-2,8.611965179E-2
1.359770604E1,-4.421162605E-2,-2.484536171E-2,1.316137314E-1
1.360784280E1,-8.634865284E-2,-1.691300869E-1,-4.140377045E-2
1.361797954E1,-1.513770819E-1,-2.401633263E-1,-9.760761261E-2
1.362811654E1,-1.068632603E-1,-2.729563713E-1,-1.130571365E-1
1.363825370E1,1.102507114E-2,-2.046148777E-1,-1.664800644E-1
1.364838990E1,1.545770168E-1,-1.135017872E-1,-1.092157364E-1
1.365852600E1,2.132908106E-1,-3.099560738E-2,-2.031517029E-2
1.366864474E1,1.998677254E-1,6.078910828E-2,9.724807739E-2
1.367876344E1,1.404168606E-1,1.369342804E-1,1.186342239E-1
1.369012797E1,1.143217087E-2,2.004475594E-1,-5.653953552E-2
1.370018497E1,-9.529852867E-2,1.683607101E-1,7.711410522E-2
1.371024697E1,-1.383565664E-1,2.523946762E-2,-5.041408539E-2
1.372030797E1,-9.567594528E-2,-1.088087559E-1,-4.671192169E-2
1.373036897E1,-3.059935570E-2,-2.182114124E-1,-2.098178864E-2
1.374042947E1,6.503355503E-2,-2.723889351E-1,1.991472244E-1
1.375048987E1,1.361387968E-1,-2.658133507E-1,2.440090179E-1
1.376055020E1,1.414455175E-1,-1.668791771E-1,-7.652378082E-2
1.377061049E1,1.389654875E-1,-2.426934242E-2,-2.474937439E-1
1.378067086E1,1.273194551E-1,1.174950600E-1,-8.306407928E-2
1.379073109E1,5.438697338E-2,1.973724365E-1,-5.961418152E-3
1.380079169E1,-3.727936745E-2,1.842613220E-1,2.699184418E-2
1.381085241E1,-3.554844856E-2,1.264393330E-1,2.194023132E-2
1.382091333E1,2.940487862E-2,3.444170952E-2,-9.833335876E-3
1.383097487E1,1.367356777E-1,-6.142139435E-2,6.875991821E-4
1.384103622E1,1.899476051E-1,-1.303286552E-1,-2.312660217E-2
1.385113922E1,2.218309641E-1,-1.330976486E-1,-5.929088593E-2
1.386123935E1,1.948984861E-1,-1.138262749E-1,1.505947113E-2
1.387133700E1,1.493817568E-1,-7.894301414E-2,1.592350006E-2
1.388143250E1,1.294256449E-1,-6.732583046E-2,-6.663894653E-2
1.389152597E1,1.172350645E-1,-7.236266136E-2,-3.910732269E-2
1.390161767E1,9.550487995E-2,-8.738517761E-2,-2.610206604E-2
1.391170786E1,9.125673771E-2,-7.915663719E-2,-2.064800262E-2
1.392179672E1,9.214794636E-2,-4.257607460E-2,-2.975463867E-2
1.393192007E1,9.928572178E-2,1.110553741E-3,-3.157615662E-2
1.394204069E1,6.191909313E-2,6.252360344E-2,-1.697540283E-3
1.395215909E1,2.013158798E-2,1.130001545E-1,1.051464081E-1
1.396227536E1,-3.284633160E-2,1.278007030E-1,1.305694580E-1
1.397238947E1,-1.340491772E-1,9.127736092E-2,8.381271362E-2
1.398250158E1,-2.021602392E-1,4.103350639E-2,4.361820221E-2
1.399261189E1,-2.054365873E-1,2.186441422E-2,-5.886840820E-2
1.400272049E1,-1.241155863E-1,3.963756561E-2,-6.769657135E-2
1.401282892E1,-5.721473694E-2,9.408164024E-2,6.982517242E-2
1.402293736E1,-1.759386063E-2,1.055531502E-1,9.021759033E-2
1.403304572E1,-1.618814468E-2,9.996151924E-2,7.456779480E-2
1.404315409E1,1.896214485E-2,9.002685547E-2,9.976100922E-2
1.405326232E1,2.040612698E-2,8.088064194E-2,2.473449707E-2
1.406337046E1,4.605567455E-2,-1.362180710E-2,7.459640503E-3
1.407347946E1,2.875244617E-2,-9.794926643E-2,3.828525543E-2
1.408358832E1,-2.369165421E-3,-1.634058952E-1,6.674766541E-3
1.409371485E1,-5.942571163E-2,-1.820101738E-1,-1.582145691E-2
1.410384122E1,-6.678819656E-2,-1.587250233E-1,-3.957748413E-4
1.411396745E1,-4.397487640E-2,-1.266217232E-1,2.900123596E-3
1.412409349E1,-1.521158218E-2,-7.100200653E-2,1.339530945E-2
1.413421895E1,1.319265366E-2,-3.939032555E-2,-2.396106720E-2
1.414434422E1,4.489314556E-2,-3.184533119E-2,-7.107734680E-2
1.415444835E1,9.686231613E-2,-1.966381073E-2,-4.898548126E-2
1.416455248E1,1.040481329E-1,-1.186656952E-2,-3.402042389E-2
1.417468372E1,9.720385075E-2,-6.859421730E-2,4.319000244E-2
1.418481485E1,5.138266087E-2,-9.221124649E-2,4.372692108E-2
1.419494628E1,3.642439842E-2,-7.056784630E-2,3.510475159E-3
1.420507762E1,1.436066628E-2,-2.491712570E-2,-1.992893219E-2
1.421520878E1,-2.440178394E-2,-4.346108437E-2,-4.894256592E-3
1.422533965E1,-4.868543148E-2,-5.248284340E-2,-1.383781433E-2
1.423544278E1,-3.436589241E-2,-9.028673172E-3,1.037597656E-3
1.424554568E1,2.165353298E-2,2.173447609E-2,-1.085567474E-2
1.425564808E1,4.790401459E-2,3.007149696E-2,-1.133155823E-2
1.426575008E1,5.759024620E-2,6.173229218E-2,2.383232117E-2
1.427585195E1,-9.925365448E-3,4.109382629E-2,-2.935123444E-2
1.428595365E1,-4.389441013E-2,1.933193207E-2,-3.894329071E-2
1.429605518E1,-9.774911404E-2,6.102323532E-3,8.618164062E-2
1.430615665E1,-6.164252758E-2,-4.282093048E-2,1.540870667E-1
1.431625851E1,-5.114436150E-2,-2.128219604E-2,-7.314205170E-2
1.432636038E1,-9.994864464E-3,-3.041219711E-2,-3.087997437E-2
1.433648311E1,2.167487144E-2,-2.979850769E-2,-1.044301987E-1
1.434660598E1,8.252823353E-2,-8.657073975E-2,6.525325775E-2
1.435672898E1,6.631946564E-2,-9.259510040E-2,5.562782288E-2
1.436685194E1,3.549957275E-2,-6.660866737E-2,1.281576157E-1
1.437697398E1,-7.534027100E-3,-7.175588608E-2,1.029291153E-1
1.438709614E1,-3.711259365E-2,-1.121687889E-2,-9.266948700E-2
1.439720071E1,-2.939260006E-2,6.794309616E-2,-2.483472824E-1
1.440730537E1,-1.992690563E-2,1.698594093E-1,-9.679889679E-2
1.441743721E1,-3.851485252E-2,1.978926659E-1,4.889202118E-2
1.442756921E1,-6.627476215E-2,1.702740192E-1,1.022129059E-1
1.443770177E1,-3.965568542E-2,6.899499893E-2,1.079730988E-1
1.444783464E1,-3.298759460E-3,-3.499579430E-2,-8.517265320E-3
1.445796777E1,4.663205147E-2,-5.283594131E-2,-3.429031372E-2
1.446810101E1,8.276796341E-2,-3.469061852E-2,3.564548492E-2
1.447820731E1,8.047389984E-2,-4.305505753E-2,-1.657009125E-2
1.448831377E1,3.043961525E-2,-6.134915352E-2,-5.697631836E-2
1.449842007E1,-4.379642010E-2,-6.502723694E-2,-7.569503784E-2
1.450852744E1,-6.092524529E-2,-6.821203232E-2,-2.713012695E-2
1.451865750E1,-4.484319687E-2,-3.740572929E-2,-2.275466919E-3
1.452878794E1,-1.656401157E-2,-3.996801376E-2,3.936195374E-2
1.453891880E1,2.089369297E-2,-5.008816719E-2,2.585029602E-2
1.454905017E1,2.458798885E-2,-7.984185219E-2,-5.006122589E-2
1.455918227E1,6.991267204E-3,-5.255675316E-2,-9.026432037E-2
1.456931477E1,-1.039516926E-2,-3.674840927E-2,-3.214168549E-2
1.457947197E1,-2.576279640E-2,-1.044845581E-2,4.794216156E-2
1.458962940E1,-4.546380043E-2,-1.067614555E-2,1.015462875E-1
1.459978707E1,-4.786300659E-2,-2.881884575E-2,2.772331238E-2
1.460994490E1,-2.243542671E-2,-5.342221260E-2,9.224700928E-2
1.462010250E1,3.273284435E-2,-6.257486343E-2,-6.329536438E-3
1.463026017E1,7.253980637E-2,1.430034637E-2,-1.363124847E-1
1.464039717E1,7.326436043E-2,6.384706497E-2,-3.375911713E-2
1.465053433E1,6.304728985E-2,1.047916412E-1,2.629184723E-2
1.466246097E1,3.111183643E-2,1.174910069E-1,3.148937225E-2
1.467252597E1,-1.948869228E-2,1.274464130E-1,1.253414154E-2
1.468258897E1,-4.076540470E-2,1.751422882E-2,6.524276733E-2
1.469265347E1,1.204466820E-2,-5.862760544E-2,7.737731934E-2
1.470271980E1,4.787635803E-2,-7.463645935E-2,1.016254425E-1
1.471278580E1,6.939804554E-2,-8.575010300E-2,1.067523956E-1
1.472285160E1,5.743122101E-2,-9.942173958E-2,4.238033295E-2
1.473291777E1,4.578018188E-2,-5.580830574E-2,1.859092712E-2
1.474298406E1,-2.149879932E-2,-3.399920464E-2,-3.873252869E-2
1.475305093E1,-6.579709053E-2,1.092410088E-2,-1.721858978E-2
1.476311804E1,-9.882521629E-2,3.166031837E-2,-4.787445068E-4
1.477318524E1,-9.647715092E-2,1.163196564E-2,-1.001834869E-2
1.478325233E1,-8.439385891E-2,-5.130171776E-2,2.598285675E-2
1.479331933E1,-1.220238209E-2,-8.281564713E-2,3.811836243E-2
1.480338879E1,4.627621174E-2,-1.022839546E-1,-2.403831482E-2
1.481345779E1,1.050856113E-1,-8.141469955E-2,-5.287075043E-2
1.482356253E1,4.685938358E-2,-1.999735832E-2,-6.265354156E-2
1.483366440E1,-2.314913273E-2,2.230286598E-2,-9.160423279E-2
1.484376364E1,-9.279286861E-2,7.189941406E-2,-7.028770447E-2
1.485386069E1,-1.314437389E-1,7.625651360E-2,4.930686951E-2
1.486395585E1,-1.510694027E-1,2.078366280E-2,3.246402740E-2
1.487404930E1,-1.075851917E-1,-3.021717072E-2,3.390312195E-3
1.488414125E1,-1.775383949E-2,-6.000328064E-2,5.178451538E-3
1.489423175E1,7.221353054E-2,-6.807637215E-2,-3.369426727E-2
1.490548997E1,1.054970026E-1,-2.268052101E-2,-1.011066437E-1
1.491554897E1,1.084228754E-1,6.912183762E-2,-9.645462036E-2
1.492560897E1,6.851971149E-2,1.256849766E-1,-1.017475128E-2
1.493566947E1,-5.130469799E-2,2.090742588E-1,-7.730484009E-3
1.494573114E1,-1.465382576E-1,1.986124516E-1,1.597690582E-2
1.495579339E1,-2.724477053E-1,4.760432243E-2,-1.785430908E-1
1.496585579E1,-2.884442806E-1,-8.806467056E-2,-9.548568726E-2
1.497591879E1,-2.384554148E-1,-1.610620022E-1,1.821985245E-1
1.498598164E1,-1.587775946E-1,-1.238842010E-1,2.566146851E-1
1.499604464E1,-3.980875015E-2,-2.800202370E-2,3.017005920E-1
1.500610731E1,5.004274845E-2,9.214901924E-2,5.597400665E-2
1.501617041E1,8.678877354E-2,2.122642994E-1,-2.479000092E-1
1.502623386E1,1.567624807E-1,2.491316795E-1,-2.660417557E-1
1.503629745E1,1.698384285E-1,1.651744843E-1,-1.531867981E-1
1.504636168E1,2.218443155E-1,2.781915665E-2,-5.887031555E-3
1.505642568E1,2.815973759E-1,-1.275568008E-1,9.774017334E-2
1.506653121E1,3.884816170E-1,-2.957293987E-1,6.578731537E-2
1.507663384E1,4.716023207E-1,-3.974921703E-1,-7.510471344E-2
1.508673401E1,5.046154261E-1,-3.915486336E-1,-1.366605759E-1
1.509683207E1,4.233243465E-1,-3.489818573E-1,-2.634096146E-1
1.510692817E1,2.949357033E-1,-3.160521984E-1,-3.904695511E-1
1.511702252E1,3.375999928E-1,-2.269642353E-1,-3.104295731E-1
1.512711528E1,5.605316162E-1,-1.550645828E-1,-7.446479797E-2
1.513720646E1,8.076677322E-1,-2.068803310E-1,-4.891109467E-2
1.514733198E1,8.877347708E-1,-2.807371616E-1,-1.669015884E-1
1.515745490E1,7.389085293E-1,-3.538484573E-1,-2.893600464E-1
1.516757530E1,3.468865156E-1,-3.238649368E-1,-2.876729965E-1
1.517769338E1,-2.576438189E-1,-1.189601421E-1,-6.777191162E-2
1.518780930E1,-8.028007150E-1,1.774046421E-1,1.849689484E-1
1.519792319E1,-1.033354998E0,4.522738457E-1,2.134008408E-1
1.520803519E1,-9.081058502E-1,6.447091103E-1,3.555526733E-1
1.521814526E1,-5.370654464E-1,6.889681816E-1,3.955698013E-1
1.522825509E1,-1.934727430E-1,5.618290901E-1,4.172134399E-1
1.523836476E1,1.778960228E-3,2.531211376E-1,2.399291992E-1
1.524847422E1,7.278156281E-2,-3.343820572E-2,-7.250785828E-2
1.525858356E1,5.703604221E-2,-1.815702915E-1,-1.606502533E-1
1.526869282E1,-5.879366398E-2,-2.017030716E-1,-1.741685867E-1
1.527880199E1,-2.180662155E-1,-1.037940979E-1,-4.332637787E-2
1.528891146E1,-4.357897043E-1,6.810665131E-3,2.365398407E-2
1.529902089E1,-6.736636162E-1,1.588745117E-1,1.959133148E-2
1.530914805E1,-7.592638731E-1,2.566795349E-1,-4.463195801E-4
1.531927512E1,-6.464744806E-1,2.764170170E-1,3.532791138E-2
1.532940219E1,-4.250330329E-1,2.270815372E-1,2.116775513E-2
1.533952915E1,-2.118433714E-1,1.697082520E-1,7.385921478E-2
1.534965575E1,-8.399677277E-2,1.430277824E-1,1.625089645E-1
1.535978248E1,2.004170418E-2,1.141374111E-1,1.402950287E-1
1.536988845E1,3.695404530E-2,8.654260635E-2,1.187238693E-1
1.537999455E1,3.878235817E-2,8.666872978E-2,4.958534241E-2
1.539012798E1,-5.755352974E-2,-5.411386490E-3,1.006183624E-1
1.540152597E1,-1.404532194E-1,-8.706164360E-2,1.353569031E-1
1.541162597E1,-2.122563124E-1,-1.652078629E-1,1.993770599E-1
1.542168297E1,-2.832182050E-1,-2.183218002E-1,2.077226639E-1
1.543174097E1,-2.940539718E-1,-1.981987953E-1,7.950210571E-2
1.544179864E1,-2.253742218E-1,-1.031260490E-1,2.124500275E-2
1.545185639E1,5.002617836E-3,-8.192062378E-4,1.675415039E-2
1.546191519E1,1.421194077E-1,7.674217224E-3,1.987743378E-2
1.547197385E1,1.482896805E-1,1.035594940E-2,-6.607246399E-2
1.548203271E1,1.338338852E-2,2.913713455E-3,-1.388130188E-1
1.549209196E1,-2.256693244E-1,3.402996063E-2,-1.140670776E-1
1.550215152E1,-5.559076071E-1,7.016134262E-2,-7.244300842E-2
1.551221862E1,-6.442155838E-1,1.313648224E-1,-7.827758789E-2
1.552228507E1,-5.568292141E-1,2.174563408E-1,-6.949234009E-2
1.553338597E1,-2.925804853E-1,2.520012856E-1,-3.067970276E-3
1.554344597E1,-1.024693251E-1,2.041106224E-1,3.065967560E-2
1.555431797E1,1.833450794E-2,9.104156494E-2,8.361721039E-2
1.556479047E1,4.370641708E-2,-5.033230782E-2,-4.256916046E-2
1.557513180E1,2.998864651E-2,-1.798422337E-1,-5.856609344E-2
1.558540405E1,8.103370667E-3,-3.041324615E-1,-1.446352005E-1
1.559563505E1,3.554296494E-2,-3.193507195E-1,8.743095398E-2
1.560585489E1,5.805397034E-2,-2.837378979E-1,1.018571854E-1
1.561605217E1,2.192273140E-1,-2.141652107E-1,3.511095047E-1
1.562623267E1,3.701478243E-1,-1.330072880E-1,2.172269821E-1
1.563584897E1,3.528302908E-1,-2.571392059E-2,-2.678775787E-2
1.564590997E1,1.703956127E-1,6.655406952E-2,-5.055999756E-2
1.565597297E1,-7.677066326E-2,1.309843063E-1,-3.650569916E-2
1.566603547E1,-2.307625413E-1,2.038531303E-1,-6.503486633E-2
1.567609747E1,-2.156220078E-1,2.450489998E-1,-1.016998291E-2
1.568616022E1,-7.493889332E-2,2.682960033E-1,1.494522095E-1
1.569622282E1,3.682208061E-2,2.108476162E-1,9.170532227E-3
1.570628549E1,1.152855158E-1,1.001751423E-1,5.122184753E-3
1.571634777E1,1.086056232E-1,-1.829504967E-2,4.262828827E-2
1.572641077E1,5.751419067E-2,-1.211376190E-1,8.958816528E-3
1.573647355E1,3.685176373E-2,-1.541855335E-1,5.691719055E-2
1.574653645E1,3.555679321E-2,-1.325960159E-1,-1.023960114E-2
1.575659918E1,3.882896900E-2,-6.130194664E-2,-3.238964081E-2
1.576666201E1,1.178371906E-2,-2.372264862E-2,-1.313266754E-1
1.577672486E1,-2.047324181E-2,-2.189517021E-2,1.884746552E-2
1.578678778E1,-1.425247192E-1,-2.704215050E-2,1.477022171E-1
1.579688538E1,-2.719659209E-1,2.985692024E-2,2.032279968E-2
1.580698051E1,-2.715091109E-1,6.314992905E-2,-1.653671265E-3
1.581707357E1,-2.328058481E-1,7.113361359E-2,-1.364898682E-2
1.582716490E1,-9.881007671E-2,2.860665321E-2,-3.046417236E-2
1.583725448E1,3.992950916E-2,-8.001327515E-4,1.150503159E-1
1.584734258E1,1.727223396E-1,-3.584313393E-2,3.771495819E-2
1.585742943E1,2.007980347E-1,-2.235555649E-2,1.131477356E-1
1.586751516E1,1.483626366E-1,3.390645981E-2,1.146316528E-2
1.587763494E1,1.739811897E-2,8.358263969E-2,-1.821994781E-2
1.588775232E1,-8.578300476E-2,1.015763283E-1,-1.879692078E-3
1.589786744E1,-1.412932277E-1,9.266805649E-2,1.905918121E-2
1.590798048E1,-1.707757115E-1,6.366205215E-2,7.558345795E-2
1.591809159E1,-8.523488045E-2,3.197169304E-2,2.424716949E-2
1.592820094E1,-2.585566044E-2,2.721381187E-2,-2.927303314E-2
1.593830870E1,5.345332623E-2,5.548000336E-4,3.760528564E-2
1.594841494E1,5.862045288E-2,-4.142785072E-2,5.235099792E-2
1.595852114E1,5.918490887E-2,-9.092068672E-2,4.779624939E-2
1.596862744E1,2.604961395E-3,-1.223220825E-1,-5.085945129E-3
1.597873377E1,1.408481598E-2,-1.236269474E-1,-3.693771362E-2
1.598884003E1,7.527589798E-3,-8.481574059E-2,-5.478000641E-2
1.599894643E1,4.936373234E-2,-8.154630661E-3,7.079601288E-2
1.600905290E1,4.608738422E-2,3.243398666E-2,7.895374298E-2
1.601915957E1,-2.609503269E-2,7.279658318E-2,2.232360840E-2
1.602926617E1,-1.243720651E-1,6.563425064E-2,1.368618011E-2
1.603938947E1,-1.847957373E-1,2.347612381E-2,6.052398682E-2
1.604951280E1,-2.221020460E-1,-8.897781372E-3,4.587173462E-3
1.605963620E1,-2.238724232E-1,-3.716206551E-2,2.265739441E-2
1.606975957E1,-1.670384407E-1,-7.295417786E-2,-2.150726318E-2
1.607988296E1,-7.548427582E-2,-3.414130211E-2,-3.139495850E-3
1.609000636E1,5.879461765E-2,-1.141715050E-2,-6.019592285E-3
1.610011240E1,9.883952141E-2,2.297472954E-2,-4.722404480E-2
1.611021856E1,1.309926510E-1,-8.351802826E-4,-4.313755035E-2
1.612035183E1,1.463216543E-1,8.399486542E-3,3.873825073E-3
1.613048503E1,1.265466213E-1,1.470303535E-2,6.495380402E-2
1.614061820E1,1.148295403E-1,-5.719900131E-3,3.720092773E-2
1.615075130E1,7.229626179E-2,2.781152725E-3,7.091522217E-3
1.616088430E1,6.823420525E-2,-4.392623901E-3,-3.219985962E-2
1.617101710E1,4.782629013E-2,3.604650497E-3,4.368591309E-2
1.618112293E1,7.474255562E-2,-2.774238586E-3,1.196336746E-1
1.619122870E1,5.325722694E-2,5.449962616E-2,-8.246040344E-2
1.620133443E1,6.925809383E-2,7.940292358E-2,2.364826202E-2
1.621144033E1,5.726528168E-2,3.738355637E-2,-1.177854538E-1
1.622154636E1,1.960062981E-2,6.294727325E-3,-5.856418610E-2
1.623165246E1,-2.457368374E-2,-3.865003586E-2,-9.861183167E-2
1.624175866E1,-5.847811699E-2,-8.094453812E-2,8.785724640E-2
1.625186499E1,2.633512020E-2,-1.087267399E-1,2.361888885E-1
1.626197146E1,1.307539940E-1,-4.693913460E-2,2.391910553E-2
1.627207796E1,1.855223179E-1,3.679037094E-2,-3.710174561E-2
1.628220269E1,1.594777107E-1,1.112284660E-1,9.388923645E-3
1.629232733E1,9.087562561E-3,1.600866318E-1,3.637981415E-2
1.630245193E1,-1.093203425E-1,1.521754265E-1,2.877902985E-2
1.631257649E1,-1.471518874E-1,1.554727554E-1,2.666378021E-2
1.632270092E1,-8.422398567E-2,1.632781029E-1,-4.306793213E-3
1.633282532E1,3.301143646E-3,1.432929039E-1,7.203102112E-3
1.634293319E1,5.720233917E-2,8.156323433E-2,3.975868225E-3
1.635304112E1,1.482546329E-2,2.705764771E-2,-1.573562622E-3
1.636444897E1,-3.062200546E-2,-6.977343559E-2,2.676010132E-2
1.637451297E1,-8.136284351E-2,-1.182708740E-1,5.036354065E-3
1.638459797E1,-5.751717091E-2,-1.189489365E-1,2.395057678E-2
1.639467197E1,2.397060394E-2,-1.103901863E-1,1.638221741E-2
1.640474330E1,5.250406265E-2,-8.543205261E-2,-5.651473999E-3
1.641481280E1,4.751181602E-2,-6.050229073E-2,1.061153412E-2
1.642488100E1,1.206314564E-2,-2.332830429E-2,-4.224777222E-3
1.643494817E1,-4.015421867E-2,-1.021337509E-2,-2.345085144E-3
1.644501474E1,-8.535778522E-2,2.996206284E-3,3.311157227E-2
1.645508099E1,-9.662765265E-2,2.411961555E-2,6.878662109E-2
1.646514721E1,-9.727376699E-2,6.996870041E-3,8.281993866E-2
1.647521271E1,-6.730175018E-2,-8.097648621E-3,8.189201355E-3
1.648527789E1,-3.815078735E-2,-4.330921173E-2,-3.797149658E-2
1.649534323E1,3.119528294E-2,-4.266667366E-2,-2.184772491E-2
1.650540823E1,5.935180187E-2,-2.088761330E-2,-2.497291565E-2
1.651547301E1,2.345263958E-2,5.340385437E-2,-1.864433289E-2
1.652557168E1,-6.469571590E-2,8.214235306E-2,2.831268311E-2
1.653566799E1,-1.031343341E-1,1.013600826E-1,2.986526489E-2
1.654576246E1,-1.078849435E-1,1.042780876E-1,3.635787964E-2
1.655585490E1,-6.921434402E-2,9.631085396E-2,3.842163086E-2
1.656594564E1,-6.617665291E-3,3.644037247E-2,7.252693176E-3
1.657603494E1,4.645454884E-2,5.133390427E-2,4.810237885E-2
1.658612294E1,6.132888794E-2,2.758145332E-2,6.487369537E-2
1.659620976E1,4.723680019E-2,6.208896637E-3,2.181339264E-2
1.660633032E1,4.334449768E-3,1.626038551E-2,2.196407318E-2
1.661644841E1,-4.124808311E-2,2.178359032E-2,3.900337219E-2
1.662656533E1,-3.894972801E-2,2.731490135E-2,4.647064209E-2
1.663668029E1,-1.246392727E-2,-1.042056084E-2,5.623912811E-2
1.664679336E1,2.591550350E-2,-1.961874962E-2,-1.066589355E-2
1.665690465E1,3.089737892E-2,-4.315400124E-2,-5.751609802E-3
1.666701440E1,4.537844658E-2,-3.543233871E-2,2.795314789E-2
1.667712264E1,4.562711716E-2,-2.573180199E-2,1.360607147E-2
1.668723004E1,2.474045753E-2,-1.907706261E-2,4.685497284E-2
1.669733747E1,-1.023149490E-2,-7.508516312E-3,3.462886810E-2
1.670744477E1,-2.868938446E-2,1.424384117E-2,3.702068329E-2
1.671755194E1,-5.277371407E-2,2.272105217E-2,1.356983185E-2
1.672765907E1,-5.321562290E-2,2.450156212E-2,-1.445579529E-2
1.673776607E1,-2.749872208E-2,3.861284256E-2,-3.035831451E-2
1.674787294E1,-1.831591129E-2,1.226162910E-2,6.474494934E-3
1.675797970E1,5.329847336E-3,-6.802797318E-3,2.418136597E-2
1.676810383E1,1.008915901E-2,2.515077591E-3,4.412555695E-2
1.677822803E1,-8.789539337E-3,-3.454446793E-2,-3.330230713E-3
1.678835230E1,-1.083397865E-2,1.199293137E-2,4.200935364E-3
1.679847633E1,-2.489149570E-2,4.273247719E-2,-2.861118317E-2
1.680860040E1,-1.977694035E-2,5.809211731E-2,3.964138031E-2
1.681872443E1,-5.309557915E-2,2.799057961E-2,8.397865295E-2
1.682883137E1,-4.381668568E-2,-7.441043854E-4,1.184158325E-1
1.683893830E1,-1.555252075E-2,3.967285156E-4,-8.940410614E-2
1.684907190E1,2.914845943E-2,-1.785278320E-2,-3.060340881E-3
1.685920566E1,4.782664776E-2,-5.870819092E-2,-7.843971252E-2
1.686933950E1,3.986954689E-3,-8.978700638E-2,8.091545105E-2
1.687947330E1,-5.310380459E-2,-4.913258553E-2,-7.457733154E-3
1.688960700E1,-8.453249931E-2,-5.837512016E-2,1.512575150E-1
1.689974060E1,-4.702436924E-2,-3.378248215E-2,1.225156784E-1
1.690984743E1,8.139014244E-3,2.522206306E-2,-9.929847717E-2
1.691995423E1,2.097046375E-2,1.651539803E-1,-5.110168457E-2
1.693006013E1,-2.209150791E-2,2.441518307E-1,4.617023468E-2
1.694016600E1,-1.302857995E-1,2.384765148E-1,5.156707764E-2
1.695027176E1,-1.668705940E-1,1.488857269E-1,9.134578705E-2
1.696037753E1,-1.196393371E-1,4.356479645E-2,1.195325851E-1
1.697048299E1,2.028226852E-3,-2.623414993E-2,8.690834045E-3
1.698058843E1,9.090340137E-2,-8.029818535E-2,-1.881599426E-2
1.699069393E1,1.106952429E-1,-1.111576557E-1,-5.932807922E-3
1.700079933E1,9.464001656E-2,-1.139321327E-1,4.310607910E-3
1.701092179E1,3.515839577E-2,-5.503487587E-2,4.310703278E-2
1.702104423E1,-5.842685699E-3,-5.651354790E-2,5.305767059E-2
1.703116673E1,2.751445770E-2,-5.591797829E-2,6.246566772E-4
1.704128929E1,5.140221119E-2,-5.513334274E-2,-1.583576202E-2
1.705141192E1,6.712126732E-2,-8.782982826E-2,5.401992798E-2
1.706153459E1,8.956825733E-2,-8.207798004E-2,4.272460938E-3
1.707163972E1,1.073743105E-1,-8.153319359E-2,-6.240940094E-2
1.708174486E1,6.803822517E-2,-1.054220200E-1,-7.424163818E-2
1.709301997E1,4.294419289E-2,-5.668902397E-2,1.239776611E-2
1.710308097E1,-2.998793125E-2,-2.654027939E-2,1.065921783E-2
1.711313497E1,-2.559649944E-2,-3.746247292E-2,1.020736694E-1
1.712319197E1,-7.178664207E-3,-3.237247467E-2,6.505012512E-3
1.713324964E1,-1.864910126E-3,-6.255841255E-2,4.209136963E-2
1.714330764E1,1.913905144E-2,-3.856468201E-2,-2.547740936E-2
1.715336604E1,5.475091934E-2,2.113342285E-2,-7.160091400E-2
1.716342504E1,4.588127136E-2,6.952548027E-2,-2.674102783E-3
1.717348361E1,3.731131554E-3,9.480023384E-2,2.343750000E-2
1.718354211E1,-7.204651833E-2,1.126201153E-1,3.971099854E-3
1.719360100E1,-7.813417912E-2,1.043095589E-1,-3.478050232E-3
1.720366030E1,-5.254459381E-2,4.647731781E-2,2.999019623E-2
1.721371975E1,4.171133041E-3,4.986000061E-2,6.156826019E-2
1.722377925E1,5.583500862E-2,1.781940460E-2,8.138942719E-2
1.723383894E1,6.889212132E-2,2.853989601E-2,4.126548767E-2
1.724389894E1,1.991271973E-2,2.456283569E-2,-3.792762756E-3
1.725400054E1,2.345216274E-2,2.796936035E-2,3.024864197E-2
1.726409967E1,3.825306892E-3,3.450894356E-2,6.447410583E-2
1.727419655E1,3.517448902E-2,-1.940727234E-2,6.487464905E-2
1.728429149E1,8.564054966E-2,-6.690025330E-2,2.908420563E-2
1.729438476E1,8.546721935E-2,-8.370208740E-2,-4.429817200E-3
1.730447656E1,7.073593140E-2,-7.431793213E-2,-4.755401611E-2
1.731456698E1,3.870892525E-2,-4.816317558E-2,-4.512119293E-2
1.732465616E1,1.884663105E-2,-2.697563171E-2,-2.601814270E-2
1.733477934E1,-5.406260490E-3,8.460283279E-3,-3.094673157E-2
1.734490000E1,-2.006816864E-2,1.736283302E-2,-9.614944458E-3
1.735501836E1,-2.315807343E-2,1.465678215E-2,-4.077339172E-2
1.736513456E1,-2.870249748E-2,-1.338052750E-2,-2.118110657E-3
1.737524859E1,-5.843508244E-2,-4.296588898E-2,-2.537059784E-2
1.738536070E1,-6.187331676E-2,-6.284189224E-2,-1.265430450E-2
1.739547098E1,-4.322135448E-2,-8.283734322E-2,-1.201629639E-2
1.740557961E1,-2.646839619E-2,-7.931542397E-2,4.347133636E-2
1.741568841E1,2.648818493E-2,-7.665610313E-2,3.156566620E-2
1.742579724E1,4.169940948E-2,-3.882241249E-2,7.347106934E-3
1.743590604E1,4.707729816E-2,-5.545616150E-3,-2.872753143E-2
1.744601494E1,1.888239384E-2,5.018949509E-3,-4.518222809E-2
1.745612371E1,-2.570581436E-2,-2.168703079E-2,3.447532654E-2
1.746623231E1,-4.622972012E-2,-2.715015411E-2,9.484863281E-2
1.747634107E1,-5.733823776E-2,-2.482080460E-2,-3.216838837E-2
1.748644994E1,-3.859663010E-2,1.489853859E-2,-5.670928955E-2
1.749657634E1,-2.113950253E-2,5.538463593E-4,-1.537256241E-1
1.750670250E1,1.796364784E-2,-5.348396301E-2,-4.057788849E-2
1.751682844E1,2.854216099E-2,-8.607077599E-2,1.263561249E-1
1.752695434E1,1.187622547E-2,-8.671116829E-2,8.568477631E-2
1.753708007E1,5.127596855E-2,-7.956981659E-2,1.115493774E-1
1.754720567E1,9.918546677E-2,-1.360440254E-2,-6.723499298E-2
1.755731054E1,9.482920170E-2,1.109411716E-1,-2.276639938E-1
1.756741534E1,2.863800526E-2,2.170906067E-1,-1.047372818E-1
1.757754750E1,-1.117668152E-1,2.176334858E-1,7.888793945E-3
1.758767960E1,-1.620821357E-1,1.755719185E-1,7.859420776E-2
1.759781157E1,-1.334771514E-1,8.125138283E-2,1.470680237E-1
1.760794330E1,-2.779018879E-2,7.491588593E-3,8.104801178E-2
1.761807494E1,9.795367718E-2,-2.448034286E-2,1.443672180E-2
1.762820650E1,1.565111876E-1,-7.396602631E-2,1.220798492E-2
1.763831100E1,1.304392815E-1,-8.034610748E-2,-2.343940735E-2
1.764841527E1,2.979302406E-2,-1.270883083E-1,-6.849384308E-2
1.765851930E1,-5.889868736E-2,-1.400551796E-1,-3.683757782E-2
1.766862320E1,-1.304299235E-1,-1.268324852E-1,-5.316829681E-2
1.767872723E1,-1.066060066E-1,-7.788777351E-2,-3.599929810E-2
1.768883137E1,-8.160018921E-2,-3.338122368E-2,1.017093658E-2
1.769893553E1,-3.374934196E-2,1.168465614E-2,3.034496307E-2
1.770903973E1,4.943442345E-2,4.012608528E-2,3.604888916E-4
1.771914410E1,8.993804455E-2,4.236888885E-2,-1.286125183E-2
1.772924860E1,8.556509018E-2,1.385498047E-2,-4.038333893E-2
1.773937010E1,4.092276096E-2,-7.046461105E-3,4.030227661E-3
1.774949160E1,-7.755756378E-4,-1.878905296E-2,7.695770264E-2
1.775961333E1,-3.184056282E-2,-6.712818146E-2,3.697299957E-2
1.776973546E1,-4.884266853E-2,-1.046748161E-1,9.953498840E-2
1.777985770E1,-3.458607197E-2,-1.147696972E-1,-8.098602295E-3
1.778998003E1,2.925753593E-2,-7.045197487E-2,-9.913349152E-2
1.780008480E1,7.706701756E-2,-2.005767822E-2,-1.499557495E-2
1.781018990E1,6.803178787E-2,3.175997734E-2,4.565715790E-2
1.782032243E1,2.524077892E-2,3.767728806E-2,-3.946304321E-3
1.783045520E1,-5.064010620E-4,4.254150391E-2,-3.482246399E-2
1.784058820E1,3.319501877E-3,4.770016670E-2,-4.414558411E-2
1.785072126E1,3.117918968E-3,4.997944832E-2,-1.693153381E-2
1.786085429E1,3.894972801E-2,3.370571136E-2,2.964782715E-2
1.787098746E1,7.682085037E-3,3.625845909E-2,2.343940735E-2
1.788109339E1,-4.462003708E-3,1.658201218E-2,5.009651184E-3
1.789119946E1,-1.376581192E-2,-5.827188492E-3,-2.557086945E-2
1.790130559E1,-8.521080017E-3,-9.032011032E-3,1.303672791E-3
1.791141196E1,-1.148343086E-3,-3.166031837E-2,1.614093781E-2
1.792151849E1,1.086223125E-2,-3.315019608E-2,-1.464843750E-2
1.793162519E1,-1.053345203E-2,-5.168509483E-2,-5.513668060E-2
1.794173202E1,-1.042151451E-2,-8.687591553E-2,-4.769420624E-2
1.795183922E1,-7.820248604E-3,-1.029338837E-1,4.291534424E-4
1.796194679E1,2.099275589E-4,-9.552097321E-2,2.914237976E-2
1.797205456E1,-8.236408234E-3,-8.661699295E-2,4.811286926E-3
1.798218002E1,1.656389236E-2,-5.191302299E-2,-5.324363708E-3
1.799230552E1,1.036548615E-2,-7.587432861E-3,-4.179477692E-2
1.800243109E1,-5.295276642E-3,3.934764862E-2,-7.580184937E-2
1.801255659E1,-2.554714680E-2,3.142833710E-2,-3.792858124E-2
1.802268189E1,-2.204918861E-2,4.478979111E-2,-1.689147949E-2
1.803280692E1,-1.314949989E-2,9.956359863E-3,-4.153251648E-2
1.804291499E1,5.559325218E-3,-1.080107689E-2,3.424549103E-2
1.805302302E1,6.853699684E-3,-3.897142410E-2,4.297924042E-2
1.806444597E1,3.877007961E-2,-3.579735756E-2,-7.503700256E-2
1.807450597E1,3.226196766E-2,4.810094833E-3,-7.036399841E-2
1.808456997E1,1.603734493E-2,3.665208817E-3,1.866340637E-3
1.809463047E1,1.182639599E-2,-1.215600967E-2,1.050996780E-1
1.810469280E1,2.970135212E-2,-1.002144814E-2,1.628398895E-2
1.811475530E1,3.932285309E-2,-1.616168022E-2,4.182243347E-2
1.812481810E1,1.874566078E-3,-4.576683044E-2,-1.680841446E-1
1.813488094E1,-2.806115150E-2,-1.057143211E-1,-1.655473709E-1
1.814494351E1,-3.592634201E-2,-1.270790100E-1,6.566238403E-2
1.815500601E1,-5.954313278E-2,-1.417546272E-1,5.860805511E-2
1.816506823E1,3.273630142E-2,-1.197924614E-1,1.755962372E-1
1.817513063E1,1.290078163E-1,-6.609511375E-2,-2.969741821E-2
1.818519308E1,1.772661209E-1,6.884980202E-2,-1.571950912E-1
1.819525558E1,9.446370602E-2,1.823055744E-1,-8.062648773E-2
1.820531820E1,-9.283757210E-2,2.551159859E-1,-7.179069519E-2
1.821538070E1,-2.258599997E-1,1.805179119E-1,6.580352783E-4
1.822547810E1,-2.325506210E-1,6.430292130E-2,7.132720947E-2
1.823557335E1,-1.147522926E-1,-3.107786179E-2,1.484298706E-2
1.824566641E1,-2.246868610E-2,-3.924942017E-2,1.999855042E-2
1.825575763E1,1.394263506E-1,-4.367494583E-2,-1.356124878E-2
1.826584726E1,1.421345472E-1,-4.595184326E-2,5.598068237E-3
1.827593531E1,1.038123369E-1,-4.303169250E-2,4.649829865E-2
1.828602207E1,2.003145218E-2,-1.045236588E-1,6.075859070E-3
1.829610752E1,-2.752614021E-2,-1.016242504E-1,-6.081295013E-2
1.830622757E1,-7.260060310E-2,-1.058845520E-1,-2.954006195E-2
1.831634490E1,-6.342124939E-2,-5.940914154E-2,-3.957748413E-4
1.832645978E1,-1.897847652E-2,-2.258253098E-2,-3.105735779E-2
1.833657243E1,2.526402473E-2,-1.237344742E-2,-2.827835083E-2
1.834668295E1,4.580760002E-2,1.202082634E-2,-5.193424225E-2
1.835679152E1,6.162571907E-2,3.436017036E-2,-4.195022583E-2
1.836689832E1,4.156434536E-2,1.438689232E-2,3.057003021E-2
1.837700348E1,3.436326981E-2,-4.808902740E-4,3.127861023E-2
1.838710845E1,2.345347404E-2,-1.568078995E-2,4.370498657E-2
1.839721345E1,5.940198898E-4,-5.814886093E-2,1.986789703E-2
1.840731815E1,5.497336388E-3,-4.003477097E-2,1.467895508E-2
1.841742271E1,1.447784901E-2,-1.562070847E-2,-8.173656464E-2
1.842752695E1,1.405715942E-2,4.467248917E-2,-2.016639709E-2
1.843763808E1,2.418160439E-3,7.729411125E-2,2.255630493E-2
1.844775015E1,-4.497981071E-2,1.008493900E-1,4.629707336E-2
1.845786205E1,-4.002344608E-2,4.768729210E-2,1.736354828E-2
1.846799205E1,-1.353263855E-2,3.370165825E-2,7.276535034E-4
1.847812191E1,-1.564240456E-2,-1.042962074E-2,8.381843567E-3
1.848825174E1,3.483080864E-2,-1.558160782E-2,6.418228149E-2
1.849838148E1,6.147956848E-2,-3.059077263E-2,5.043315887E-2
1.850851121E1,4.230725765E-2,-2.204227448E-2,3.418636322E-2
1.851864084E1,3.955876827E-2,-2.076363564E-2,8.369445801E-3
1.852875294E1,-3.745794296E-3,-2.637147903E-3,-6.713867188E-4
1.853886488E1,-1.335370541E-2,-4.676222801E-2,1.181221008E-2
1.855033297E1,-2.047717571E-2,-4.087710381E-2,2.638816833E-3
1.856039297E1,5.937099457E-3,-1.161479950E-2,-2.829551697E-2
1.857045497E1,1.093733311E-2,-3.053164482E-2,-1.147270203E-2
1.858051747E1,-8.870363235E-4,-8.653879166E-3,-2.573299408E-2
1.859058080E1,4.375457764E-3,-2.741956711E-2,5.481719971E-3
1.860064355E1,1.916146278E-2,-1.736402512E-2,1.518821716E-2
1.861070535E1,1.485991478E-2,6.920099258E-3,2.483367920E-2
1.862076652E1,-1.834762096E-2,-1.180410385E-2,-1.334762573E-2
1.863082709E1,-3.632307053E-3,-2.060794830E-2,-3.943634033E-2
1.864088759E1,-9.982585907E-4,-2.171897888E-2,-3.180122375E-2
1.865094826E1,-7.956385612E-3,-2.516055107E-2,6.982803345E-3
1.866100886E1,-2.411007881E-3,2.184391022E-3,1.206016541E-2
1.867106958E1,3.429365158E-2,-7.308244705E-3,-7.156372070E-3
1.868113042E1,4.245913029E-2,1.493453979E-3,3.313827515E-2
1.869119134E1,3.647589684E-2,3.250122070E-3,4.951763153E-2
1.870125241E1,-3.045797348E-3,3.395795822E-3,1.352024078E-2
1.871135514E1,-4.744505882E-2,9.504318237E-3,-1.484489441E-2
1.872145539E1,-6.288778782E-2,-1.033878326E-2,8.140850067E-2
1.873155345E1,-3.803157806E-2,-2.359485626E-2,6.017017365E-2
1.874164962E1,1.596271992E-2,1.209497452E-2,-2.318382263E-3
1.875174383E1,7.635819912E-2,5.412101746E-5,-2.992439270E-2
1.876183643E1,3.888142109E-2,-3.840160370E-2,-1.159467697E-1
1.877192767E1,4.548943043E-2,-3.040790558E-2,-1.131343842E-1
1.878201758E1,3.849267960E-3,-5.975437164E-2,-4.889202118E-2
1.879214175E1,-1.031470299E-2,-7.873558998E-2,1.716938019E-1
1.880226346E1,1.536142826E-2,-6.654739380E-2,1.065940857E-1
1.881238286E1,9.390163422E-2,-2.049064636E-2,-5.355739594E-2
1.882250024E1,1.572179794E-1,8.166456223E-2,-5.904388428E-2
1.883261583E1,5.757796764E-2,1.126463413E-1,9.889602661E-4
1.884272962E1,-6.937170029E-2,1.247930527E-1,5.571365356E-3
1.885284162E1,-1.607633233E-1,9.322500229E-2,2.521896362E-2
1.886295192E1,-1.036528349E-1,6.715440750E-2,5.469894409E-2
1.887306212E1,-3.197157383E-2,1.868152618E-2,5.750560760E-2
1.888317242E1,3.737974167E-2,-5.001783371E-3,2.268791199E-3
1.889328268E1,4.386746883E-2,-2.970170975E-2,-2.215003967E-2
1.890339305E1,6.128990650E-2,-6.629753113E-2,3.498077393E-2
1.891350362E1,9.076833725E-3,-7.849168777E-2,2.048015594E-2
1.892361428E1,-6.502747536E-3,-1.193060875E-1,-4.912853241E-2
1.893372501E1,-1.749551296E-2,-1.200013161E-1,-5.907630920E-2
1.894383568E1,-2.705311775E-2,-8.000898361E-2,-4.976558685E-2
1.895396438E1,-4.439449310E-2,-3.026628494E-2,-2.116680145E-2
1.896409321E1,-4.244232178E-2,-2.113747597E-2,2.181339264E-2
1.897422211E1,-1.131772995E-2,-2.890133858E-2,-3.586292267E-2
1.898435105E1,8.385181427E-4,4.128932953E-3,-3.127670288E-2
1.899447998E1,2.741575241E-2,4.534006119E-3,7.179450989E-2
1.900460894E1,3.043568134E-2,-6.288528442E-3,3.242492676E-4
1.901471715E1,1.272332668E-2,1.336574554E-2,5.541133881E-2
1.902482544E1,-2.696812153E-2,-3.716230392E-3,-6.453323364E-2
1.903622497E1,-2.944624424E-2,-2.185726166E-2,-1.715278625E-2
1.904628797E1,-3.967523575E-3,-1.127815247E-2,-5.109024048E-2
1.905634797E1,3.651666641E-2,3.034591675E-2,-1.330375671E-2
1.906640997E1,7.333397865E-2,4.352307320E-2,3.643035889E-2
1.907647097E1,4.079151154E-2,5.387449265E-2,-2.653121948E-2
1.908653297E1,-3.830313683E-3,4.263639450E-2,-1.527214050E-2
1.909659537E1,-3.676640987E-2,4.906344414E-2,-6.041526794E-3
1.910665770E1,-4.853284359E-2,2.779579163E-2,-2.990436554E-2
1.911671999E1,-1.967811584E-2,5.525279045E-2,-2.471542358E-2
1.912678224E1,2.848863602E-2,1.858782768E-2,4.529285431E-2
1.913684435E1,3.110957146E-2,1.813554764E-2,6.753444672E-2
1.914690635E1,7.434844971E-3,9.140968323E-4,3.948974609E-2
1.915696799E1,-8.557438850E-3,-9.347438812E-3,-6.647109985E-4
1.916702965E1,1.134932041E-2,-2.707624435E-2,1.653862000E-2
1.917709134E1,2.261996269E-3,-4.042816162E-2,-7.081985474E-3
1.918715313E1,4.817843437E-3,-2.564930916E-2,1.699447632E-2
1.919724826E1,1.683926582E-2,-4.249715805E-2,2.653312683E-2
1.920734145E1,1.717472076E-2,-5.980467796E-2,-2.638149261E-2
1.921743268E1,3.699398041E-2,-5.810689926E-2,-2.192783356E-2
1.922752235E1,5.184495449E-2,-4.423284531E-2,3.050804138E-2
1.923761051E1,3.265833855E-2,-4.733252525E-2,8.701324463E-3
1.924769731E1,-1.017439365E-2,-2.214932442E-2,5.849838257E-3
1.925778288E1,-1.673853397E-2,-3.813743591E-3,-2.325439453E-2
1.926786742E1,-3.065454960E-2,1.509523392E-2,-1.381969452E-2
1.927910197E1,-1.658713818E-2,1.992392540E-2,-1.137733459E-2
1.928916597E1,-4.966855049E-3,1.767492294E-2,-1.706123352E-3
1.929922497E1,-2.391839027E-2,-2.495384216E-2,2.238655090E-2
1.930928497E1,-2.234578133E-3,-2.913546562E-2,-8.528709412E-3
1.931934397E1,1.935303211E-2,-3.147387505E-2,-3.724098206E-3
1.932940297E1,1.740694046E-2,-3.450608253E-2,4.147720337E-2
1.933946297E1,2.313554287E-2,-2.355456352E-2,2.184009552E-2
1.934952347E1,1.216328144E-2,4.497528076E-3,-7.255554199E-3
1.935958404E1,-8.236050606E-3,1.431393623E-2,-3.123855591E-2
1.936964442E1,-1.882863045E-2,9.357929230E-4,6.234645844E-2
1.937970475E1,-1.318359375E-2,2.091217041E-2,1.080436707E-1
1.938976555E1,6.696581841E-3,3.289127350E-2,-6.441593170E-2
1.939982637E1,4.308032990E-2,1.002049446E-2,2.335643768E-2
1.940988737E1,3.353929520E-2,-5.603456497E-2,-8.127880096E-2
1.941995044E1,1.781904697E-2,-6.500864029E-2,-4.250907898E-2
1.943001359E1,-1.428580284E-2,-8.076548576E-2,-1.445102692E-2
1.944011119E1,-3.389346600E-2,-6.593680382E-2,9.856510162E-2
1.945020650E1,1.803016663E-2,-7.084059715E-2,1.195383072E-1
1.946029991E1,9.286081791E-2,-7.143020630E-4,-5.743312836E-2
1.947039163E1,1.568684578E-1,7.170319557E-2,-8.160305023E-2
1.948048163E1,1.167174578E-1,1.185207367E-1,5.086994171E-2
1.949057008E1,-3.268575668E-2,1.107053757E-1,5.526638031E-2
1.950065727E1,-1.544024944E-1,6.401920319E-2,-1.797676086E-3
1.951074354E1,-1.567139626E-1,2.590465546E-2,-1.761436462E-2
1.952086376E1,-2.961933613E-2,4.540634155E-2,-1.184177399E-2
1.953098176E1,9.337294102E-2,3.063726425E-2,-4.233169556E-2
1.954109772E1,1.354069710E-1,-8.982419968E-3,-3.011035919E-2
1.955121184E1,9.385645390E-2,-5.802989006E-2,-4.898262024E-2
1.956132424E1,2.173197269E-2,-8.275604248E-2,1.656532288E-3
1.957143496E1,-3.836941719E-2,-8.593487740E-2,-3.629589081E-2
1.958154413E1,-8.158892393E-2,-8.719563484E-2,-6.964683533E-2
1.959165189E1,-1.107245088E-1,-5.717062950E-2,-4.784107208E-2
1.960175979E1,-7.101696730E-2,-3.342151642E-2,-7.830524445E-2
1.961186773E1,-1.969826221E-2,-4.692530632E-2,-5.327510834E-2
1.962197586E1,3.019094467E-3,-5.971813202E-2,-3.996467590E-2
1.963208416E1,4.235160351E-2,-5.812621117E-2,-2.423381805E-2
1.964219249E1,4.294753075E-2,-3.760600090E-2,1.039886475E-1
1.965230086E1,2.798938751E-2,-2.240204811E-2,6.668376923E-2
1.966240963E1,-3.978013992E-4,-2.227210999E-2,7.929325104E-2
1.967251856E1,-3.496760130E-2,-3.261375427E-2,-1.840782166E-2
1.968264842E1,-1.803243160E-2,-3.390669823E-2,3.226089478E-2
1.969277826E1,8.284449577E-4,-9.372711182E-3,-3.452396393E-2
1.970290816E1,2.525252104E-2,3.891992569E-2,-1.287651062E-2
1.971303802E1,4.572659731E-2,8.025145531E-2,3.988647461E-2
1.972316696E1,1.295816898E-2,7.556772232E-2,1.535415649E-3
1.973329576E1,-3.396272659E-3,4.414701462E-2,2.053546906E-2
1.974340722E1,-1.512229443E-2,4.439353943E-2,1.448631287E-3
1.975351856E1,1.141411066E-2,3.612613678E-2,9.096145630E-3
1.976500297E1,4.747581482E-2,2.821040154E-2,4.561328888E-2
1.977506397E1,6.661909819E-2,1.287460327E-2,6.050968170E-2
1.978512897E1,4.528808594E-2,2.169370651E-3,3.462123871E-2
1.979519147E1,3.391027451E-2,3.237962723E-3,3.016757965E-2
1.980525347E1,-4.057109356E-3,-1.691770554E-2,-2.202224731E-2
1.981531597E1,-3.497588634E-2,-3.899717331E-2,-7.641506195E-2
1.982537897E1,-4.660671949E-2,-6.989669800E-2,-1.784238815E-1
1.983544164E1,-1.750659943E-2,-8.508038521E-2,-6.205558777E-2
1.984550406E1,2.028441429E-2,-7.454633713E-2,5.268287659E-2
1.985556644E1,6.074661016E-2,-7.121872902E-2,9.556007385E-2
1.986562855E1,2.962368727E-2,-7.208919525E-2,7.309150696E-2
1.987569105E1,1.089489460E-2,-5.759119987E-2,4.047870636E-2
1.988575378E1,-2.645909786E-2,-2.444982529E-2,4.831886292E-2
1.989581653E1,-7.331788540E-2,-1.280307770E-2,6.814193726E-2
1.990587930E1,-5.994921923E-2,-1.191854477E-3,3.523826599E-2
1.991594201E1,-5.614042282E-2,2.789258957E-3,1.413726807E-2
1.992604014E1,-3.109878302E-2,-5.239248276E-3,-2.156257629E-3
1.993613608E1,-1.122432947E-2,-1.284122467E-3,1.751041412E-2
1.994623020E1,2.248442173E-2,-1.899814606E-2,8.458137512E-3
1.995632264E1,1.198291779E-3,1.608371735E-2,4.232406616E-3
1.996641333E1,3.770768642E-3,3.252267838E-3,9.581565857E-3
1.997650248E1,1.122659445E-2,1.194119453E-2,4.364204407E-2
1.998659043E1,2.858906984E-2,1.792621613E-2,3.924179077E-2
1.999667711E1,2.178424597E-2,-2.227187157E-2,2.023792267E-2
2.000795097E1,2.241373062E-2,-8.345842361E-3,4.394626617E-2
2.001801497E1,6.822228432E-3,-7.498741150E-3,2.647399902E-2
2.002807597E1,-1.738727093E-3,3.203153610E-3,-1.481723785E-2
2.003813747E1,8.518517017E-3,2.208948135E-2,-3.654003143E-2
2.004819947E1,2.413630486E-3,1.294064522E-2,-5.798339844E-4
2.005826147E1,-8.592188358E-3,-1.045322418E-2,1.000804901E-1
2.006832367E1,1.026511192E-3,-2.762627602E-2,3.288173676E-2
2.007838567E1,1.139599085E-2,-1.885223389E-2,-5.369758606E-2
2.008844724E1,1.403331757E-2,-1.830768585E-2,5.174636841E-3
2.009850862E1,1.626753807E-2,-6.282401085E-2,-4.199504852E-2
2.010857017E1,1.325839758E-2,-9.277772903E-2,1.096773148E-1
2.011863187E1,-3.837597370E-2,-6.760048866E-2,1.122093201E-2
