"Time (s)","Linear Acceleration x (m/s^2)","Linear Acceleration y (m/s^2)","Linear Acceleration z (m/s^2)"
2.031695500E-2,-1.061542988E0,2.192732811E0,-2.626791000E-1
3.036995500E-2,-9.766192436E-1,2.491889715E0,-6.753988266E-1
4.042495500E-2,-1.006816268E0,2.524280548E0,-9.669122696E-1
5.047945500E-2,-9.826687574E-1,2.276322365E0,-7.706117630E-1
6.053412100E-2,-1.001486063E0,1.973160863E0,-4.350910187E-1
7.058887100E-2,-1.196223736E0,1.603757620E0,-6.286497116E-1
8.064407100E-2,-1.404736161E0,1.194422483E0,-7.207574844E-1
9.069957100E-2,-1.600923300E0,9.349853992E-1,-1.647729874E-1
1.016639550E-1,-1.622191429E0,8.358004093E-1,6.067132950E-1
1.117249550E-1,-1.411127567E0,8.870921135E-1,1.150534630E0
1.217839550E-1,-1.041407704E0,1.014712572E0,1.617059708E0
1.318424550E-1,-7.600656748E-1,1.065686941E0,1.675260544E0
1.419011210E-1,-4.157693088E-1,9.992594719E-1,1.381451607E0
1.519601210E-1,-3.627419472E-1,9.918704033E-1,1.049085617E0
1.620193210E-1,-4.244530797E-1,1.058683157E0,9.060688019E-1
1.720784870E-1,-3.575030565E-1,1.227235556E0,5.803146362E-1
1.821372010E-1,-3.178949356E-1,1.554512024E0,4.131927490E-1
1.921958260E-1,-5.585112572E-1,1.971757412E0,6.848144531E-1
2.022543810E-1,-8.464874029E-1,2.389225245E0,3.942604065E-1
2.123126810E-1,-8.654189110E-1,2.559731007E0,-3.115844727E-2
2.223711350E-1,-6.556975842E-1,2.363412857E0,-4.126253128E-1
2.324294680E-1,-6.231607199E-1,1.990101695E0,-5.471735001E-1
2.424875440E-1,-7.959803343E-1,1.520247459E0,-5.102758408E-1
2.525456860E-1,-1.080189109E0,9.902026653E-1,-4.096994400E-1
2.626396860E-1,-1.456929445E0,4.486656189E-1,-2.627449036E-1
2.727311860E-1,-1.721798778E0,1.463766098E-1,-1.140470505E-1
2.828203620E-1,-1.925856113E0,4.656887054E-2,9.451866150E-2
2.929076950E-1,-1.953802705E0,1.331155300E-1,3.320312500E-1
3.029933260E-1,-1.761220217E0,3.440229893E-1,6.965560913E-1
3.130774760E-1,-1.346763372E0,7.735350132E-1,1.054056168E0
3.231602370E-1,-7.567807436E-1,1.166474581E0,1.132530212E0
3.332417370E-1,-4.650390148E-1,1.415601134E0,1.050914764E0
3.444809550E-1,-3.797015250E-1,1.461984038E0,8.287229538E-1
3.545369550E-1,-4.681572318E-1,1.421550632E0,5.343265533E-1
3.646109550E-1,-6.670042276E-1,1.396081090E0,2.130937576E-1
3.746764550E-1,-9.204378724E-1,1.379903078E0,-8.204460144E-3
3.847381210E-1,-1.122075558E0,1.374203444E0,-1.706438065E-1
3.947978710E-1,-1.236701012E0,1.355144501E0,-2.822875977E-1
4.048570710E-1,-1.253892303E0,1.308165312E0,-2.507581711E-1
4.149165710E-1,-1.220734715E0,1.206319213E0,-1.258592606E-1
4.249755710E-1,-1.091898084E0,1.092048407E0,2.030372620E-2
4.350339460E-1,-9.849159718E-1,1.006213665E0,2.133502960E-1
4.450922790E-1,-8.636680841E-1,9.421217442E-1,3.777017593E-1
4.551506790E-1,-7.871832848E-1,9.280362129E-1,4.326601028E-1
4.652091330E-1,-7.961640358E-1,9.672141075E-1,4.383974075E-1
4.752676330E-1,-8.481839895E-1,1.008893967E0,3.412666321E-1
4.853280170E-1,-8.690891862E-1,1.060937405E0,2.292547226E-1
4.953882310E-1,-8.784624338E-1,1.073396206E0,1.168346405E-1
5.054894310E-1,-8.746621013E-1,1.067219496E0,2.377891541E-2
5.155877430E-1,-8.752027154E-1,1.059526443E0,-5.855274200E-2
5.256836840E-1,-8.791498542E-1,1.027140617E0,-1.937580109E-1
5.357774060E-1,-8.509784937E-1,9.708423615E-1,-2.754716873E-1
5.458689840E-1,-8.211670518E-1,9.575479031E-1,-2.407245636E-1
5.559587340E-1,-7.645344138E-1,9.500477314E-1,-1.131172180E-1
5.660469720E-1,-7.085353136E-1,9.193596840E-1,5.937957764E-2
5.761338350E-1,-7.323321700E-1,8.956487179E-1,2.812480927E-1
5.862553560E-1,-8.014175892E-1,8.604984283E-1,3.843564987E-1
5.963742310E-1,-8.602970839E-1,8.889899254E-1,6.654453278E-2
6.064903910E-1,-8.367264271E-1,8.217191696E-1,-5.014228821E-2
6.166041980E-1,-8.584513068E-1,7.092528343E-1,1.844682693E-1
6.267158270E-1,-8.510176539E-1,6.964011192E-1,2.671747208E-1
6.368254690E-1,-8.054243326E-1,7.545776367E-1,-1.031780243E-2
6.469332620E-1,-7.979461551E-1,8.151981831E-1,-9.147548676E-2
6.570393620E-1,-7.848934531E-1,8.020644188E-1,1.387624741E-1
6.671447280E-1,-7.436446548E-1,8.076000214E-1,3.975791931E-1
6.772500610E-1,-7.226908803E-1,8.281977177E-1,6.007766724E-1
6.873554610E-1,-7.169658542E-1,8.746104240E-1,5.468511581E-1
6.974610610E-1,-7.245657444E-1,9.023921490E-1,4.516315460E-1
7.075666940E-1,-7.305139303E-1,9.451668262E-1,3.893747330E-1
7.176721940E-1,-7.095243335E-1,1.025103569E0,4.488592148E-1
7.277776270E-1,-7.125326991E-1,1.083281279E0,4.364500046E-1
7.378830600E-1,-7.086262703E-1,1.163419127E0,3.643312454E-1
7.480064260E-1,-6.916223764E-1,1.201402068E0,2.901420593E-1
7.581296920E-1,-6.522203088E-1,1.158865094E0,1.962280273E-1
7.682528920E-1,-6.105942726E-1,1.080139279E0,1.791391373E-1
7.783760250E-1,-5.707029104E-1,9.303832054E-1,2.224178314E-1
7.884982580E-1,-5.764566660E-1,7.878661156E-1,2.714557648E-1
7.986204240E-1,-5.504856110E-1,6.604316235E-1,2.904987335E-1
8.087219570E-1,-5.352082253E-1,5.529437065E-1,2.603816986E-1
8.188236230E-1,-4.881956577E-1,4.696674347E-1,1.641302109E-1
8.289528230E-1,-4.525859356E-1,4.070973396E-1,2.048873901E-1
8.390822560E-1,-4.475174546E-1,3.521063328E-1,2.099142075E-1
8.492119890E-1,-4.236885607E-1,3.440980911E-1,1.484317780E-1
8.593418550E-1,-4.043172896E-1,3.730320930E-1,6.102085114E-2
8.694716550E-1,-3.781671822E-1,3.764207363E-1,5.771636963E-2
8.796015880E-1,-3.227123618E-1,3.615303040E-1,8.340740204E-2
8.897041540E-1,-2.973572314E-1,3.831067085E-1,1.260347366E-1
8.998068540E-1,-2.877449095E-1,3.859677315E-1,1.520385742E-1
9.099097540E-1,-2.913724780E-1,3.868463039E-1,1.709861755E-1
9.200126870E-1,-2.794673145E-1,4.020512104E-1,1.564130783E-1
9.301157200E-1,-2.968936265E-1,3.983681202E-1,1.491279602E-1
9.402188200E-1,-2.999660075E-1,3.834054470E-1,9.180259705E-2
9.503219200E-1,-2.762358189E-1,3.643195629E-1,6.585597992E-2
9.604250200E-1,-2.548280060E-1,3.413591385E-1,6.893444061E-2
9.705284200E-1,-2.214596570E-1,3.052222729E-1,5.560970306E-2
9.806320200E-1,-1.910741925E-1,2.821805477E-1,8.328533173E-2
9.907538200E-1,-1.665159464E-1,2.603044510E-1,9.687519073E-2
1.000875720E0,-1.552474499E-1,2.705342770E-1,9.391307831E-2
1.010997686E0,-1.783863306E-1,2.362973690E-1,9.836673737E-2
1.021119752E0,-1.637291312E-1,2.221243382E-1,6.952285767E-2
1.031241952E0,-1.568694711E-1,2.257916927E-1,6.726741791E-2
1.041364318E0,-1.558170319E-1,2.230732441E-1,6.995582581E-2
1.051468818E0,-1.774473190E-1,2.282648087E-1,7.276821136E-2
1.061573284E0,-2.016329169E-1,2.147860527E-1,3.978824615E-2
1.071704950E0,-2.322958112E-1,1.989383698E-1,-3.623008728E-2
1.081836716E0,-2.500975728E-1,1.857790947E-1,-1.394653320E-2
1.091969316E0,-2.315951586E-1,1.700503826E-1,3.705883026E-2
1.102102016E0,-1.821585894E-1,1.374998093E-1,1.048078537E-1
1.112234749E0,-1.431655288E-1,1.266393661E-1,1.462144852E-1
1.122367349E0,-1.094757318E-1,1.087405682E-1,1.732692719E-1
1.132472382E0,-1.264474988E-1,1.543076038E-1,1.494884491E-1
1.142577382E0,-7.248800993E-2,1.719825268E-1,-1.349411011E-1
1.152682215E0,-1.122856140E-1,1.020750999E-1,-7.364559174E-2
1.162787148E0,-1.085438132E-1,6.025600433E-2,6.544113159E-3
1.172892048E0,-1.188781261E-1,8.572602272E-2,-1.342535019E-1
1.182996881E0,-1.134636998E-1,1.418094635E-1,-3.252725601E-1
1.193101547E0,-1.413866878E-1,1.627097130E-1,-2.569732666E-1
1.203206013E0,-1.244792342E-1,1.336371899E-1,-6.103515625E-2
1.213310546E0,-7.634401321E-2,1.513350010E-1,2.215585709E-1
1.223415112E0,-2.430790663E-2,1.201174259E-1,4.345779419E-1
1.233537178E0,-2.652162313E-2,1.124432087E-1,3.908252716E-1
1.243659311E0,-9.143978357E-2,1.061859131E-1,2.530450821E-1
1.253781544E0,-1.037533879E-1,9.324574471E-2,1.096458435E-1
1.263903810E0,-1.441984773E-1,9.347462654E-2,9.276199341E-2
1.274025910E0,-1.055057645E-1,1.229157448E-1,9.500503540E-2
1.284147876E0,-1.082096100E-1,2.355189323E-1,2.100086212E-2
1.294251776E0,-9.274464846E-2,3.261924982E-1,-7.638835907E-2
1.304355609E0,-7.556831837E-2,3.587750196E-1,-1.134052277E-1
1.315690955E0,-4.859000444E-2,2.969642878E-1,-1.213626862E-1
1.325748955E0,-7.746565342E-2,1.959731579E-1,-6.678009033E-2
1.335806955E0,-8.564215899E-2,6.777691841E-2,-3.824710846E-2
1.345866455E0,-7.744550705E-2,-2.550935745E-2,-7.034301758E-3
1.355925455E0,-7.180225849E-2,-9.147000313E-2,-4.025363922E-2
1.365984705E0,-6.689471006E-2,-1.281912327E-1,1.757049561E-2
1.376044105E0,-8.697271347E-2,-1.029977798E-1,1.063756943E-1
1.386103605E0,-5.903053284E-2,-6.929063797E-2,6.566238403E-2
1.396162176E0,-8.948868513E-2,-4.151082039E-2,-1.112079620E-2
1.406220301E0,-6.848710775E-2,2.382016182E-2,-3.292655945E-2
1.416278078E0,-6.989884377E-2,7.194542885E-2,-1.658344269E-2
1.426335678E0,-6.772464514E-2,1.006348133E-1,2.009391785E-3
1.436393132E0,-5.638206005E-2,1.049439907E-1,3.244972229E-2
1.446450465E0,-4.701697826E-2,1.161098480E-1,8.199787140E-2
1.456507695E0,-4.270225763E-2,1.219127178E-1,1.050653458E-1
1.466564409E0,-1.680630445E-2,1.463732719E-1,1.423931122E-1
1.476663075E0,-4.343247414E-2,1.492094994E-1,9.831237793E-2
1.486758825E0,-3.863364458E-2,1.688024998E-1,6.622505188E-2
1.496852060E0,-5.718326569E-2,1.672604084E-1,6.539535522E-2
1.506943282E0,-1.040855050E-1,1.897959709E-1,7.659244537E-2
1.517032860E0,-7.871609926E-2,1.695182323E-1,6.633758545E-2
1.527120810E0,-7.223099470E-2,1.635966301E-1,2.976512909E-2
1.537207476E0,-8.253395557E-2,1.195013523E-1,2.673912048E-2
1.547292885E0,-8.354467154E-2,9.245347977E-2,2.615165710E-2
1.558602955E0,-7.056468725E-2,7.028985023E-2,1.119709015E-2
1.568660955E0,-6.756192446E-2,6.290698051E-2,3.221988678E-2
1.578718955E0,-4.767102003E-2,5.111455917E-2,4.375743866E-2
1.588775955E0,-8.288383484E-2,2.511239052E-2,5.293273926E-2
1.598833288E0,-6.032806635E-2,5.451416969E-2,3.586769104E-2
1.608891538E0,-6.147986650E-2,5.541157722E-2,1.168537140E-2
1.618950138E0,-6.260937452E-2,6.611847878E-2,-1.723289490E-2
1.629008804E0,-5.451178551E-2,7.217049599E-2,-3.417587280E-2
1.639066804E0,-4.457163811E-2,4.955315590E-2,-5.593013763E-2
1.649125054E0,-6.564313173E-2,5.142927170E-3,-4.181766510E-2
1.659183165E0,-5.048274994E-2,-6.206274033E-3,2.010250092E-2
1.669241265E0,-1.664191484E-2,1.875162125E-3,7.486629486E-2
1.679299355E0,-9.189486504E-3,-6.801605225E-3,9.850311279E-2
1.689357438E0,1.185536385E-3,3.708338737E-2,1.748266220E-1
1.699415591E0,-2.056902647E-2,7.334637642E-2,1.362295151E-1
1.709473876E0,3.464937210E-3,9.451580048E-2,-1.154203415E-1
1.719573809E0,-3.871434927E-2,1.399898529E-2,-4.369258881E-2
1.729670996E0,-4.681873322E-2,-3.654241562E-3,-5.883312225E-2
1.739765937E0,-4.952710867E-2,1.192569733E-2,-2.256793976E-1
1.749859103E0,-5.415725708E-2,9.447836876E-2,-3.133172989E-1
1.759950629E0,-9.321957827E-2,9.927988052E-2,-1.726121902E-1
1.770040729E0,-8.087664843E-2,1.095564365E-1,5.040454865E-2
1.780129490E0,-8.233845234E-3,1.138806343E-1,3.217678070E-1
1.790216944E0,3.940641880E-2,8.600568771E-2,4.469461441E-1
1.800338596E0,2.829980850E-2,4.054164886E-2,3.536376953E-1
1.810457762E0,-1.965928078E-2,3.198599815E-2,2.284908295E-1
1.820574482E0,-5.232423544E-2,3.583765030E-2,1.288156509E-1
1.830688905E0,-9.039455652E-2,3.629350662E-2,3.607559204E-2
1.840801275E0,-1.138918996E-1,9.268188477E-2,8.017539978E-3
1.850911667E0,-1.047449112E-1,1.943029165E-1,-7.710361481E-2
1.861020218E0,-6.824612617E-2,2.985625267E-1,-1.448345184E-1
1.871127051E0,-5.696457624E-2,2.590334415E-1,-1.186351776E-1
1.881233784E0,-6.223565340E-2,2.044266462E-1,-7.052040100E-2
1.891340550E0,-6.789737940E-2,8.627080917E-2,-2.220153809E-2
1.901447283E0,-5.716383457E-2,-3.819108009E-2,1.669883728E-2
1.911553816E0,-4.187226295E-2,-1.117761135E-1,1.740455627E-2
1.921660249E0,-2.945220470E-2,-1.709957123E-1,-2.262306213E-2
1.931766649E0,-8.476018906E-3,-1.733376980E-1,5.207443237E-2
1.941873115E0,-2.178990841E-2,-1.528842449E-1,6.661987305E-2
1.951979681E0,-2.964222431E-2,-1.144495010E-1,1.957893372E-3
1.962103814E0,-3.852486610E-2,-4.086685181E-2,-5.798435211E-2
1.972227947E0,-4.018616676E-2,-3.274440765E-3,-5.808353424E-2
1.982352147E0,-2.605837584E-2,5.352854729E-2,-1.514434814E-2
1.992476413E0,-1.977944374E-2,9.857082367E-2,1.457214355E-3
2.002600713E0,-2.076989412E-2,1.268672943E-1,5.157279968E-2
2.012724979E0,1.648068428E-4,1.141796112E-1,9.686756134E-2
2.022828545E0,-5.223929882E-3,1.154735088E-1,1.277170181E-1
2.032932178E0,-8.339345455E-3,1.041970253E-1,1.249122620E-1
2.043062678E0,2.762317657E-3,9.728503227E-2,1.028547287E-1
2.053192911E0,-1.647371054E-2,1.383906603E-1,4.018020630E-2
2.063322844E0,-2.324444056E-2,1.151051521E-1,2.787113190E-2
2.073452277E0,-2.759659290E-2,1.257692575E-1,3.959751129E-2
2.083581243E0,-3.190070391E-2,9.857606888E-2,3.226852417E-2
2.093709976E0,-5.995047092E-2,9.558105469E-2,3.219032288E-2
2.103811276E0,-6.621289253E-2,5.669832230E-2,5.796432495E-3
2.113912142E0,-7.032084465E-2,5.138850212E-2,1.291751862E-2
2.124012642E0,-7.704919577E-2,-2.084064484E-2,-2.065372467E-2
2.134112942E0,-5.037587881E-2,-1.639556885E-2,3.239631653E-3
2.144213108E0,-7.155090570E-2,-2.854514122E-2,1.759433746E-2
2.154313208E0,-5.414938927E-2,-7.133245468E-3,3.915786743E-2
2.164413108E0,-4.843091965E-2,-7.349967957E-3,1.284217834E-2
2.174512874E0,-2.124959230E-2,4.183292389E-3,3.196334839E-2
2.184612574E0,-2.996391058E-2,1.091027260E-2,2.235221863E-2
2.194712107E0,-1.710718870E-2,1.723980904E-2,7.870674133E-3
2.204829107E0,-1.659971476E-2,-2.481460571E-3,-4.488563538E-2
2.214945973E0,-2.349954844E-2,1.395034790E-2,-8.802986145E-2
2.225062839E0,-3.719466925E-2,1.379346848E-2,-7.125568390E-2
2.235179639E0,-4.845601320E-2,-7.844448090E-3,7.784843445E-3
2.245296439E0,-3.409361839E-2,-1.034975052E-2,7.001018524E-2
2.255412872E0,-9.817481041E-4,1.568937302E-2,1.082258224E-1
2.265511505E0,4.599988461E-3,3.170466423E-2,9.615516663E-2
2.275609938E0,1.852297783E-2,6.410741806E-2,1.846456528E-1
2.286881955E0,-1.946103573E-2,1.080960035E-1,-1.658725739E-2
2.296932955E0,-7.408797741E-3,5.544304848E-2,-1.051464081E-1
2.306985955E0,-3.768950701E-2,-1.063632965E-2,-1.099748611E-1
2.317039455E0,-4.964661598E-2,-1.522707939E-2,-1.636037827E-1
2.327093455E0,-4.650735855E-2,2.712941170E-2,-2.534885406E-1
2.337147205E0,-7.398277521E-2,3.911840916E-2,-1.846532822E-1
2.347201005E0,-9.046280384E-2,6.419920921E-2,-9.463310242E-3
2.357255338E0,-5.115705729E-2,7.185983658E-2,2.333507538E-1
2.367308909E0,3.285557032E-2,7.193732262E-2,4.259214401E-1
2.377362284E0,7.692670822E-2,7.369565964E-2,3.593206406E-1
2.387415284E0,3.135532141E-2,3.770470619E-2,2.248926163E-1
2.397468284E0,-2.818435431E-2,5.244016647E-3,9.930801392E-2
2.407521011E0,-7.111424208E-2,2.587556839E-2,-4.105949402E-2
2.417573761E0,-8.618307114E-2,7.784295082E-2,-5.454444885E-2
2.427626453E0,-6.949669123E-2,1.343950033E-1,-9.403610229E-2
2.437678953E0,-3.434079885E-2,2.039307356E-1,-1.304759979E-1
2.447773686E0,-2.605915070E-4,2.455674410E-1,-1.302423477E-1
2.457865811E0,1.207947731E-3,1.784532070E-1,-4.536533356E-2
2.467955693E0,-2.609109879E-2,4.982018471E-2,1.332664490E-2
2.478043581E0,-4.389917850E-2,-7.646918297E-2,4.327392578E-2
2.488129581E0,-3.311699629E-2,-1.719182730E-1,1.569557190E-2
2.498213981E0,-3.977787495E-2,-2.346954346E-1,-2.647304535E-2
2.508297028E0,-3.566664457E-2,-2.388906479E-1,4.386901855E-4
2.518378800E0,-3.500962257E-2,-1.989326477E-1,4.854202271E-2
2.528495669E0,-3.203541040E-2,-1.335232258E-1,2.702426910E-2
2.538609877E0,-3.293305635E-2,-5.191183090E-2,-1.369857788E-2
2.548721677E0,-6.882131100E-3,2.499556541E-2,-3.760051727E-2
2.558831369E0,-1.205456257E-2,7.826948166E-2,-8.770942688E-3
2.568939146E0,1.073014736E-2,1.197911501E-1,2.962398529E-2
2.579045217E0,3.325223923E-2,1.567095518E-1,7.282829285E-2
2.589149596E0,5.847352743E-2,1.481481791E-1,8.493328094E-2
2.599252429E0,4.555481672E-2,1.391090155E-1,1.017360687E-1
2.609355262E0,4.728728533E-2,1.126152277E-1,1.088390350E-1
2.619458228E0,2.732133865E-2,9.511852264E-2,6.792449951E-2
2.629561394E0,-1.882302761E-2,8.485150337E-2,6.294441223E-2
2.639664694E0,-1.189047098E-2,9.377336502E-2,3.645324707E-2
2.649768027E0,-5.239939690E-2,9.130954742E-2,6.039333344E-2
2.659871493E0,-4.496067762E-2,5.787134171E-2,5.803394318E-2
2.669975326E0,-4.945272207E-2,4.613447189E-2,3.176879883E-2
2.680079526E0,-6.805491447E-2,3.196239471E-2,1.987743378E-2
2.690204926E0,-8.435094357E-2,-2.553915977E-2,1.032543182E-2
2.700330492E0,-7.201474905E-2,-4.238700867E-2,7.562637329E-4
2.710456392E0,-5.265516043E-2,-3.282499313E-2,-1.625061035E-3
2.720582725E0,-3.557169437E-2,-4.943418503E-2,8.006095886E-3
2.730709191E0,-4.008126259E-2,-2.263426781E-2,2.248764038E-2
2.740835991E0,-1.320856810E-2,-3.405451775E-2,1.546001434E-2
2.750941957E0,-2.679336071E-2,-3.097629547E-2,6.593799591E-2
2.761048190E0,-4.279792309E-3,-4.005932808E-2,3.259372711E-2
2.772564955E0,-1.289308071E-2,-2.076530457E-2,1.353836060E-2
2.782627955E0,-1.481831074E-2,-2.551746368E-2,-7.967948914E-3
2.792711955E0,-1.019990444E-2,-1.837968826E-2,-3.432655334E-2
2.802783455E0,-3.688627481E-2,2.857446671E-3,-1.765727997E-2
2.812852455E0,-2.481573820E-2,2.250432968E-3,1.334762573E-2
2.822919455E0,-3.130006790E-2,8.286237717E-3,7.301044464E-2
2.832984455E0,-2.110087872E-2,2.095055580E-2,1.181898117E-1
2.843048455E0,-1.318371296E-2,2.341723442E-2,1.345148087E-1
2.853112026E0,1.888942719E-2,1.087880135E-2,1.413202286E-1
2.863175651E0,1.631855965E-3,4.833006859E-2,2.462987900E-1
2.873238984E0,-7.714629173E-4,9.516298771E-2,-3.066062927E-3
2.883301684E0,-3.215670586E-4,4.789805412E-2,-2.809181213E-1
2.893364047E0,-1.211780310E-2,8.836388588E-3,-1.951446533E-1
2.903426297E0,-1.404768229E-2,-3.487825394E-3,-2.156896591E-1
2.913490450E0,-2.141731977E-2,3.219521046E-2,-2.863941193E-1
2.923554521E0,-1.701283455E-2,2.854096889E-2,-2.651700974E-1
2.933662054E0,-3.785955906E-2,-8.334755898E-3,5.631923676E-2
2.943766866E0,7.478117943E-3,-4.718482494E-2,4.713859558E-1
2.953869160E0,4.860252142E-2,-2.600967884E-2,5.770053864E-1
2.963969104E0,3.763383627E-2,1.012563705E-2,2.771778107E-1
2.974066946E0,-3.680998087E-2,5.356609821E-2,1.131153107E-1
2.984163046E0,-8.346635103E-2,8.476126194E-2,5.395889282E-2
2.994257474E0,-7.859277725E-2,1.370097399E-1,-2.978324890E-3
3.004350337E0,-7.029259205E-2,1.938120127E-1,-9.308338165E-2
3.014477423E0,-4.548251629E-2,2.447818518E-1,-2.159576416E-1
3.024601798E0,-3.814792633E-2,2.327125072E-1,-2.517023087E-1
3.034723718E0,-2.667349577E-2,1.539858580E-1,-1.904945374E-1
3.044843410E0,-2.556318045E-2,1.695787907E-2,-6.916809082E-2
3.054960891E0,-6.153964996E-2,-1.362679005E-1,5.937385559E-2
3.065076319E0,-6.486850977E-2,-2.158620358E-1,9.914779663E-2
3.075189905E0,-6.442821026E-2,-2.828762531E-1,6.186771393E-2
3.085301705E0,-3.861099482E-2,-2.663694620E-1,4.790496826E-2
3.095412738E0,-3.336483240E-2,-2.308187485E-1,7.402038574E-2
3.105523838E0,-3.122103214E-2,-1.802347898E-1,3.508377075E-2
3.115634871E0,-6.743371487E-3,-9.912824631E-2,-3.743743896E-2
3.125745937E0,1.829510927E-2,-5.360960960E-3,-1.241388321E-1
3.135857137E0,4.586774111E-2,5.857169628E-2,-1.100053787E-1
3.145968370E0,3.506428003E-2,1.332478523E-1,-3.099346161E-2
3.156079570E0,3.840017319E-2,1.343643665E-1,6.010723114E-2
3.166190503E0,2.502530813E-2,1.741015911E-1,9.142303467E-2
3.176318803E0,6.984770298E-3,1.558365822E-1,9.390544891E-2
3.186447036E0,-3.329157829E-3,1.412945986E-1,1.081800461E-1
3.196575202E0,-1.818770170E-2,8.472383022E-2,7.910346985E-2
3.206703168E0,3.397101164E-2,8.499026299E-2,4.271221161E-2
3.216830134E0,-9.572505951E-5,4.957306385E-2,3.973960876E-3
3.226956934E0,-7.385015488E-3,3.680217266E-2,-2.732276917E-2
3.237061767E0,-1.170307398E-2,3.003025055E-2,-3.199195862E-2
3.247166367E0,-2.024829388E-2,1.242470741E-2,4.316329956E-3
3.257298000E0,-4.780775309E-2,-1.633584499E-2,2.883148193E-2
3.267429566E0,-4.215449095E-2,-3.062140942E-2,4.855918884E-2
3.277561232E0,-4.840117693E-2,-5.732047558E-2,5.144309998E-2
3.287692832E0,-7.633459568E-2,-6.073272228E-2,3.502750397E-2
3.297824498E0,-5.629569292E-2,-5.988562107E-2,6.538391113E-3
3.307956298E0,-2.908521891E-2,-7.161939144E-2,1.144123077E-2
3.318060864E0,-2.853679657E-2,-6.432890892E-2,1.927375793E-3
3.328165330E0,-6.513476372E-3,-4.737567902E-2,-1.236343384E-2
3.338269663E0,6.098449230E-3,-2.291727066E-2,-2.631187439E-3
3.348373829E0,4.359900951E-3,-2.858161926E-3,-2.873039246E-2
3.358478029E0,-4.693269730E-3,8.867979050E-4,-4.469871521E-3
3.368582295E0,-1.661145687E-2,-7.186770439E-3,-4.246044159E-2
3.378686628E0,-4.067069292E-2,-2.726817131E-2,-1.343441010E-2
3.388791061E0,-4.706317186E-2,-1.447522640E-2,8.342742920E-3
3.398896161E0,-2.840554714E-2,-3.350067139E-2,3.245353699E-2
3.409001327E0,-1.226055622E-2,8.901357651E-3,1.090574265E-1
3.419123493E0,3.197610378E-3,3.366363049E-2,1.614847183E-1
3.429245626E0,1.229965687E-2,3.838169575E-2,1.898488998E-1
3.439367792E0,-1.583606005E-2,7.106351852E-2,2.372903824E-1
3.449490058E0,-3.341907263E-2,1.086448431E-1,1.907539368E-2
3.459612358E0,-3.299176693E-3,1.258144379E-1,-5.289487839E-1
3.469734858E0,1.919627190E-3,2.101671696E-2,-5.020294189E-1
3.479839891E0,-1.582419872E-2,-7.808780670E-2,-2.243862152E-1
3.489945024E0,-5.841970444E-3,-1.007796526E-1,-1.458349228E-1
3.501263955E0,-4.172962904E-2,-1.229321957E-1,-7.388210297E-2
3.511326955E0,-4.135847092E-2,-1.387914419E-1,2.022905350E-1
3.521390955E0,-7.416188717E-3,-1.341660023E-1,5.909605026E-1
3.531453455E0,4.868805408E-2,-1.851832867E-2,5.836458206E-1
3.541514121E0,3.629064560E-2,8.686029911E-2,1.993722916E-1
3.551574371E0,8.492946625E-3,1.781572104E-1,-8.259296417E-2
3.561634771E0,-8.178889751E-2,2.150595188E-1,-1.133499146E-1
3.571694771E0,-1.100387573E-1,2.340941429E-1,-1.175098419E-1
3.581753913E0,-7.702726126E-2,2.234770060E-1,-1.520729065E-1
3.591812788E0,-1.974046230E-2,1.989692450E-1,-2.046909332E-1
3.601871899E0,9.972274303E-3,1.556612253E-1,-1.747703552E-1
3.611931099E0,3.904044628E-3,1.320993900E-2,-6.983566284E-2
3.621989826E0,-2.484726906E-2,-1.275566816E-1,1.071910858E-1
3.632048159E0,-2.138483524E-2,-2.375043631E-1,1.978750229E-1
3.642106466E0,-5.497986078E-2,-2.681463957E-1,1.970643997E-1
3.652164894E0,-4.626238346E-2,-2.451030016E-1,1.355571747E-1
3.662265294E0,-3.043466806E-2,-1.879367828E-1,6.137847900E-3
3.672363106E0,-5.985260010E-3,-1.330953836E-1,-4.532909393E-2
3.682458694E0,-4.062294960E-3,-7.216382027E-2,-5.878734589E-2
3.692552305E0,3.098750114E-2,1.409769058E-3,-1.176204681E-1
3.702644041E0,-1.726412773E-2,4.366195202E-2,-1.328639984E-1
3.712734041E0,-7.239460945E-3,8.404755592E-2,-6.843280792E-2
3.722822517E0,1.778638363E-2,1.122192144E-1,1.803684235E-2
3.732909653E0,1.967549324E-2,1.202479601E-1,8.091640472E-2
3.743030566E0,2.170395851E-2,1.354413033E-1,1.150732040E-1
3.753148649E0,3.306633234E-2,1.422290802E-1,1.034698486E-1
3.763264209E0,-8.342444897E-3,1.184160709E-1,1.034431458E-1
3.773377401E0,-2.109694481E-2,7.597553730E-2,6.232261658E-2
3.783488660E0,-2.680617571E-2,5.887305737E-2,4.492759705E-2
3.793597874E0,-1.335138083E-2,3.493332863E-2,-4.900836945E-2
3.803705184E0,-1.624482870E-2,1.932740211E-2,-7.324409485E-2
3.813810784E0,-1.124793291E-2,-1.130604744E-2,-5.397319794E-2
3.823916017E0,-2.521800995E-2,-3.095185757E-2,-1.284980774E-2
3.834021083E0,-1.045870781E-2,-4.766476154E-2,3.317451477E-2
3.844126083E0,-4.113841057E-2,-6.210696697E-2,7.438755035E-2
3.854230916E0,-5.531150103E-2,-5.654835701E-2,1.032924652E-1
3.864335582E0,-5.056393147E-2,-6.181001663E-2,4.812526703E-2
3.874440182E0,-4.848355055E-2,-3.433537483E-2,-3.116703033E-2
3.884544815E0,-3.692698479E-2,-1.882481575E-2,-6.258106232E-2
3.894649381E0,-2.055925131E-2,-5.134701729E-3,-5.556774139E-2
3.904771081E0,-2.540588379E-2,1.633167267E-5,-5.070877075E-2
3.914892581E0,-8.161962032E-3,1.130318642E-2,-4.828453064E-3
3.925014081E0,-5.001127720E-3,-1.475942135E-2,1.493549347E-2
3.935135747E0,-7.000744343E-3,-1.613008976E-2,1.088619232E-2
3.945257313E0,-4.688024521E-3,6.615400314E-3,-3.452301025E-4
3.955378679E0,-1.897603273E-2,7.330179214E-3,1.227855682E-2
3.965479012E0,-5.223131180E-2,-5.035281181E-3,4.383945465E-2
3.975579212E0,-5.408555269E-2,-1.635313034E-2,1.110544205E-1
3.986864955E0,-1.513314247E-2,1.195311546E-2,1.134090424E-1
3.996917955E0,1.176393032E-2,2.717769146E-2,1.155252457E-1
4.006966955E0,-3.852367401E-3,2.979481220E-2,1.319198608E-1
4.017018455E0,-3.268992901E-2,3.931927681E-2,1.818628311E-1
4.027071121E0,-6.248468161E-2,8.535885811E-2,-1.127233505E-1
4.037124871E0,-2.673453093E-2,9.670567513E-2,-5.600290298E-1
4.047178871E0,-1.831102371E-2,-2.041411400E-2,-3.746061325E-1
4.057232371E0,5.540549755E-3,-6.984448433E-2,-1.206512451E-1
4.067285085E0,1.804959774E-2,-7.254099846E-2,-1.472587585E-1
4.077337835E0,-9.900748730E-3,-1.287790537E-1,3.477478027E-2
4.087390501E0,-2.586436272E-2,-1.324360371E-1,3.893632889E-1
4.097443301E0,-6.342113018E-3,-1.075898409E-1,6.453962326E-1
4.107496391E0,1.925855875E-2,1.832211018E-2,4.050359726E-1
4.117549557E0,5.527430773E-2,1.443138123E-1,-2.998828888E-2
4.127602633E0,-1.104307175E-2,1.960974932E-1,-1.659955978E-1
4.137655918E0,-6.242984533E-2,2.075744867E-1,-1.606082916E-1
4.147750984E0,-8.844405413E-2,2.344602346E-1,-1.833086014E-1
4.157843421E0,-5.535453558E-2,2.307882309E-1,-1.786308289E-1
4.167933479E0,-1.698911190E-2,1.963602304E-1,-1.489191055E-1
4.178021423E0,-1.607185602E-2,6.752359867E-2,-1.780986786E-2
4.188107580E0,-3.517204523E-2,-8.094418049E-2,7.532787323E-2
4.198192180E0,-2.501416206E-2,-1.931223869E-1,1.420755386E-1
4.208275275E0,-4.233312607E-2,-2.708675861E-1,1.653394699E-1
4.218357093E0,-5.016249418E-2,-2.990024090E-1,1.257143021E-1
4.228473353E0,-3.137344122E-2,-2.685568333E-1,8.294963837E-2
4.238587228E0,-5.692064762E-3,-1.707508564E-1,-4.217529297E-2
4.248698988E0,2.942448854E-2,-8.848917484E-2,-1.460094452E-1
4.258808718E0,2.100747824E-2,-1.112985611E-2,-7.512187958E-2
4.268916532E0,4.641830921E-3,4.545331001E-2,-4.483222961E-2
4.279022710E0,-8.753061295E-3,7.733380795E-2,-7.401180267E-2
4.289127399E0,-2.617079020E-2,1.161544323E-1,-4.043674469E-2
4.299230699E0,-2.405250072E-2,1.161924601E-1,2.708435059E-2
4.309334232E0,-2.605301142E-2,1.025643349E-1,1.043825150E-1
4.319437965E0,3.183960915E-2,1.220892668E-1,8.583927155E-2
4.329541798E0,2.922916412E-2,9.744262695E-2,7.659816742E-2
4.339645631E0,1.194775105E-2,6.669282913E-2,7.184886932E-2
4.349749397E0,-3.892737627E-2,3.006100655E-2,6.446933746E-2
4.359853297E0,-5.630224943E-2,3.378379345E-2,1.392173767E-2
4.369957363E0,-8.960425854E-3,6.665229797E-2,-4.371547699E-2
4.380061596E0,-1.633882523E-2,3.811275959E-2,-4.847908020E-2
4.390184062E0,-1.851481199E-2,1.288676262E-2,2.120018005E-2
4.400306695E0,-3.742170334E-2,-1.192045212E-2,6.942272186E-2
4.410429328E0,-4.386252165E-2,-3.929233551E-2,8.173561096E-2
4.420552094E0,-4.766273499E-2,-4.569435120E-2,5.563735962E-2
4.430674960E0,-4.450231791E-2,-7.445931435E-2,2.456474304E-2
4.440797926E0,-3.229248524E-2,-7.997393608E-2,-2.105903625E-2
4.450900226E0,-3.952366114E-2,-8.303737640E-2,-4.275035858E-2
4.461002592E0,-1.781314611E-2,-5.455565453E-2,-4.518413544E-2
4.471132025E0,1.996815205E-3,-5.609631538E-2,-3.537845612E-2
4.481261758E0,9.722471237E-3,-1.626420021E-2,-1.107597351E-2
4.491391691E0,1.943480968E-2,-2.353429794E-3,1.312255859E-3
4.501521824E0,9.601771832E-3,6.775140762E-3,4.000759125E-2
4.511652257E0,-5.354940891E-3,1.312756538E-2,3.310775757E-2
4.521782757E0,-3.954631090E-2,3.325963020E-2,-9.833335876E-3
4.531886123E0,-3.060173988E-2,2.165746689E-2,-3.853511810E-2
4.541989389E0,-4.498541355E-2,1.429915428E-2,-2.181339264E-2
4.552092489E0,-5.176424980E-2,1.848912239E-2,4.034042358E-2
4.562195522E0,2.022707462E-2,3.670358658E-2,9.282875061E-2
4.572298588E0,2.722626925E-2,5.943250656E-2,1.165018082E-1
4.582401521E0,1.300597191E-2,4.815268517E-2,1.448869705E-1
4.592504287E0,-4.313904047E-2,5.573439598E-2,2.044239044E-1
4.602606887E0,-8.061373234E-2,9.447836876E-2,3.149986267E-3
4.612709520E0,-3.071129322E-2,1.004848480E-1,-4.394960403E-1
4.622812086E0,6.218016148E-3,-1.514697075E-2,-3.452510834E-1
4.632931886E0,2.920752764E-2,-1.119505167E-1,-1.125431061E-1
4.643051652E0,4.248905182E-2,-8.533787727E-2,-1.967506409E-1
4.653171585E0,-2.917408943E-3,-1.194875240E-1,-1.444597244E-1
4.663291518E0,-6.796979904E-2,-1.714346409E-1,3.009214401E-1
4.673411684E0,-6.385523081E-2,-1.701757908E-1,6.215858459E-1
4.683531717E0,1.207804680E-2,-8.208608627E-2,4.435739517E-1
4.693633750E0,9.782743454E-2,1.137671471E-1,2.774429321E-2
4.703735750E0,4.481983185E-2,1.625906229E-1,-1.563510895E-1
4.715141955E0,-1.711696386E-2,2.038434744E-1,-1.513185501E-1
4.725200955E0,-6.308275461E-2,2.192214727E-1,-1.361713409E-1
4.735286955E0,-2.839827538E-2,2.396209240E-1,-1.439895630E-1
4.745358955E0,-5.724644661E-2,2.108322382E-1,-1.385459900E-1
4.755425621E0,-3.689223528E-2,9.561300278E-2,-7.699680328E-2
4.765490121E0,-2.471399307E-2,-3.602027893E-2,2.095985413E-2
4.775552921E0,-2.416402102E-2,-1.814353466E-1,1.476173401E-1
4.785614754E0,-2.976644039E-2,-2.592267990E-1,1.995820999E-1
4.795675039E0,-1.201128960E-2,-2.640047073E-1,2.148399353E-1
4.805734414E0,-2.289384604E-2,-2.302145958E-1,1.429700851E-1
4.815793191E0,1.890635490E-2,-1.522402763E-1,2.722930908E-2
4.825851291E0,3.893101215E-2,-7.178843021E-2,-1.225271225E-1
4.835908927E0,2.758735418E-2,-6.179213524E-3,-1.478996277E-1
4.845966510E0,1.562511921E-2,5.069804192E-2,-7.976722717E-2
4.856023663E0,-1.808685064E-2,8.081841469E-2,-1.261596680E-1
4.866080734E0,-3.322249651E-2,1.115145683E-1,-1.430673599E-1
4.876172934E0,-1.540464163E-2,1.152199507E-1,-3.687381744E-2
4.886262996E0,6.324887276E-3,9.819889069E-2,1.244897842E-1
4.896351231E0,4.165673256E-2,6.609344482E-2,1.683311462E-1
4.906437619E0,3.350490332E-2,4.410731792E-2,1.040210724E-1
4.916522303E0,-1.115679741E-3,3.665041924E-2,8.472537994E-2
4.926605753E0,-3.096854687E-2,1.359581947E-3,6.032848358E-2
4.936688181E0,-4.401123524E-2,1.068305969E-2,3.096580505E-2
4.946769499E0,-2.561414242E-2,-3.590345383E-3,-3.181934357E-2
4.956885585E0,-2.576732635E-2,9.803771973E-3,-5.118656158E-2
4.966999293E0,-2.294516563E-2,1.751196384E-2,-4.386234283E-2
4.977110653E0,-3.931319714E-2,-9.224414825E-3,2.601337433E-2
4.987219960E0,-2.451819181E-2,-4.967796803E-2,8.405685425E-2
4.997327367E0,-4.568064213E-2,-6.650507450E-2,9.893512726E-2
5.007433045E0,-3.805047274E-2,-6.736564636E-2,9.210586548E-2
5.017537079E0,-1.612019539E-2,-4.079973698E-2,5.387592316E-2
5.027639479E0,3.126680851E-3,-3.671622276E-2,-2.527236938E-2
5.037740812E0,1.975613832E-2,-1.883196831E-2,-2.794075012E-2
5.047842178E0,7.643043995E-3,-8.166909218E-3,-3.780078888E-2
5.057943644E0,2.201265097E-2,-1.162111759E-2,-6.675148010E-2
5.068045110E0,2.258050442E-2,7.512331009E-3,-4.276943207E-2
5.078146776E0,3.586828709E-3,3.950989246E-2,-2.102756500E-2
5.088248576E0,-2.528434992E-2,2.189826965E-2,1.040649414E-2
5.098350676E0,-3.542280197E-2,4.029941559E-2,-6.053924561E-3
5.108453109E0,-4.553598166E-2,2.518475056E-2,-3.448295593E-2
5.118576575E0,-6.015783548E-2,1.682269573E-2,-2.467250824E-2
5.128700408E0,-3.850710392E-2,5.462288857E-3,1.616382599E-2
5.138824541E0,-1.673716307E-2,1.041674614E-2,7.367706299E-2
5.148948907E0,2.375912666E-2,-6.664395332E-3,1.142950058E-1
5.159073640E0,2.863073349E-2,-2.948403358E-3,1.332321167E-1
5.169198673E0,1.749080420E-2,-2.128326893E-2,1.856393814E-1
5.179306239E0,-4.248052835E-2,4.153335094E-2,9.924411774E-2
5.189414005E0,-1.171523333E-2,5.914330482E-2,-2.909908295E-1
5.200832955E0,-1.787966490E-2,-1.901543140E-2,-3.048486710E-1
5.210892955E0,-3.181099892E-3,-7.420992851E-2,-1.393890381E-1
5.220952955E0,5.068123341E-3,-4.965102673E-2,-3.076477051E-1
5.231014455E0,-1.300925016E-2,-8.407831192E-3,-3.704547882E-1
5.241076788E0,-6.152284145E-2,-5.249345303E-2,-8.297157288E-2
5.251139288E0,-2.169060707E-2,-6.320190430E-2,2.434625626E-1
5.261202088E0,4.974043369E-2,-9.479618073E-2,4.929628372E-1
5.271264588E0,8.833295107E-2,-3.975391388E-2,3.776931763E-1
5.281326016E0,3.459101915E-2,5.465745926E-4,1.442909241E-1
5.291387266E0,-1.815038919E-2,1.782226562E-2,3.484630585E-2
5.301448599E0,-1.573270559E-2,6.989514828E-2,-1.735305786E-2
5.311509999E0,-2.747249603E-2,1.644835472E-1,-3.581523895E-2
5.321590180E0,-3.532922268E-2,2.080731392E-1,-4.632472992E-2
5.331668513E0,-3.235834837E-2,2.567405701E-1,-1.059751511E-1
5.341745128E0,-3.714185953E-2,2.303543091E-1,-1.048192978E-1
5.351820628E0,-3.937268257E-2,1.129649878E-1,-5.048656464E-2
5.361936494E0,-3.304553032E-2,-4.193699360E-2,6.332397461E-3
5.372048869E0,-2.546256781E-2,-1.447389126E-1,6.055641174E-2
5.382161692E0,-4.705548286E-3,-1.916882992E-1,8.084201813E-2
5.392271636E0,3.210186958E-3,-2.169272900E-1,5.510520935E-2
5.402379109E0,3.008115292E-2,-1.825733185E-1,-4.541873932E-2
5.412484259E0,4.727864265E-2,-1.597121954E-1,-3.621768951E-2
5.422587259E0,5.667203665E-2,-9.230077267E-2,1.104736328E-2
5.432688395E0,2.520453930E-2,-7.050073147E-2,-3.509616852E-2
5.444106955E0,2.051413059E-3,-6.843924522E-3,-1.168270111E-1
5.454169955E0,2.025187016E-3,4.526340961E-2,-1.116600037E-1
5.464232955E0,-6.291866302E-4,5.792367458E-2,-3.202724457E-2
5.474296455E0,2.961236238E-2,7.319068909E-2,9.309387207E-2
5.484358788E0,2.333587408E-2,7.803750038E-2,1.198310852E-1
5.494419538E0,9.817183018E-3,6.914925575E-2,1.126766205E-1
5.504479938E0,-1.550179720E-2,6.334018707E-2,9.081077576E-2
5.514540771E0,-1.467829943E-2,5.366325378E-2,7.341098785E-2
5.524601199E0,-3.063154221E-2,3.864157200E-2,3.195285797E-2
5.534661324E0,-3.665256500E-2,2.651536465E-2,-1.416110992E-2
5.544721324E0,-3.725022078E-2,2.032792568E-2,-3.125572205E-2
5.554781324E0,-3.754508495E-2,2.285170555E-2,4.661560059E-3
5.564841142E0,-3.765416145E-2,2.627778053E-2,3.599357605E-2
5.574901058E0,-3.514420986E-2,3.784775734E-3,3.390979767E-2
5.584960673E0,-4.447895288E-2,7.233500481E-3,6.287860870E-2
5.595019815E0,-8.594214916E-3,-1.155638695E-2,5.816364288E-2
5.605113681E0,-1.404446363E-2,-1.711297035E-2,4.837799072E-2
5.615205056E0,-4.947125912E-3,-4.213094711E-3,-4.636764526E-3
5.625294291E0,-7.758677006E-3,-1.337885857E-3,-1.943206787E-2
5.635381846E0,1.663208008E-3,6.462931633E-3,-1.502513885E-2
5.645467793E0,-1.039946079E-2,-8.846640587E-3,8.713722229E-3
5.655552443E0,-7.772207260E-3,1.945495605E-2,-5.722999573E-3
5.665635776E0,1.432931423E-2,-9.219050407E-3,-8.064270020E-3
5.675718094E0,2.999424934E-3,-1.673936844E-3,-7.581710815E-4
5.686942955E0,-3.962516785E-3,-5.978345871E-3,1.132965088E-2
5.697004955E0,1.504856348E-2,4.020333290E-3,1.140689850E-2
5.707063955E0,-1.146316528E-2,-5.156993866E-4,-1.010131836E-2
5.717123455E0,-1.861178875E-2,-1.272296906E-2,-1.254177094E-2
5.727182788E0,-1.849091053E-2,-1.364624500E-2,8.822441101E-3
5.737242788E0,-2.836287022E-2,-2.482497692E-2,4.916858673E-2
5.747302988E0,2.576619387E-2,-7.803320885E-3,9.893321991E-2
5.757363321E0,3.449398279E-2,-8.618831635E-4,9.114074707E-2
5.767423749E0,5.941092968E-2,-1.590549946E-2,1.336727142E-1
5.777484249E0,-1.276379824E-2,2.876210213E-2,1.666784286E-1
5.787545026E0,2.167481184E-2,7.373785973E-2,-9.703731537E-2
5.797606126E0,-1.088678837E-3,1.792001724E-2,-1.209974289E-1
5.807667307E0,-6.015622616E-2,-6.322419643E-2,-1.187429428E-1
5.817728807E0,-6.340730190E-2,-2.274692059E-2,-2.658843994E-1
5.827790499E0,-8.641231060E-2,3.091692924E-3,-3.437519073E-1
5.837852284E0,-8.330094814E-2,1.844894886E-2,-2.221136093E-1
5.847955350E0,-4.168576002E-2,1.604545116E-2,2.021408081E-2
5.858055975E0,3.758770227E-2,7.885217667E-3,2.942705154E-1
5.868154386E0,1.147121787E-1,-2.214336395E-2,4.768095016E-1
5.878250997E0,1.063838601E-1,-4.980897903E-2,3.711061478E-1
5.888345839E0,2.367532253E-2,-5.374813080E-2,2.046823502E-1
5.898439039E0,-3.588712215E-2,-5.382025242E-2,4.488563538E-2
5.908530800E0,-2.894246578E-2,-1.166856289E-2,-1.456069946E-2
5.918621072E0,-6.911641359E-2,5.606174469E-2,5.225181580E-3
5.929955955E0,-2.656733990E-2,1.916157007E-1,-5.821800232E-2
5.940019955E0,-1.922178268E-2,2.685799599E-1,-9.692573547E-2
5.950083955E0,-2.281504869E-2,2.528524399E-1,-7.747459412E-2
5.960147455E0,9.405076504E-3,1.690768003E-1,-4.578113556E-2
5.970210788E0,-1.136195660E-2,4.981315136E-2,-1.641845703E-2
5.980273788E0,-6.264209747E-3,-5.289244652E-2,3.292083740E-3
5.990335988E0,-8.499443531E-3,-1.367218494E-1,-1.537036896E-2
6.000398321E0,8.232176304E-3,-1.852113008E-1,-5.331707001E-2
6.010460749E0,2.445304394E-2,-2.009946108E-1,-6.513023376E-2
6.020523249E0,1.347345114E-2,-1.815166473E-1,9.052276611E-3
6.030585804E0,2.581119537E-2,-1.215643883E-1,5.919933319E-2
6.040647904E0,-3.623604774E-3,-9.277844429E-2,2.803230286E-2
6.050710267E0,-1.028716564E-2,-6.307482719E-3,-4.609107971E-2
6.060772767E0,-2.144104242E-2,3.033578396E-2,-4.348945618E-2
6.070835382E0,-1.906538010E-2,7.654702663E-2,-9.824752808E-3
6.080897882E0,-5.707561970E-3,9.614658356E-2,3.328704834E-2
6.090999415E0,1.690524817E-2,6.983172894E-2,8.347034454E-2
6.101098227E0,4.424464703E-2,6.664252281E-2,1.071481705E-1
6.111194991E0,3.340566158E-2,5.555295944E-2,1.211128235E-1
6.121289935E0,2.249503136E-2,5.122172832E-2,1.014671326E-1
6.131383145E0,1.175469160E-2,5.167996883E-2,5.549812317E-2
6.141474895E0,-1.758337021E-2,7.428765297E-2,4.800033569E-2
6.151565085E0,-5.528271198E-3,4.724085331E-2,2.392101288E-2
6.161653903E0,-3.141570091E-2,6.141126156E-2,4.067420959E-2
6.171775772E0,-2.854609489E-2,3.043103218E-2,4.313278198E-2
6.181895022E0,-3.513467312E-2,2.810430527E-2,4.079532623E-2
6.192011902E0,-2.994197607E-2,-3.202080727E-3,2.402973175E-2
6.202126632E0,-3.429913521E-2,-6.068944931E-3,1.678371429E-2
6.212239335E0,-4.648542404E-2,-3.310203552E-2,4.655838013E-3
6.222350156E0,-1.598656178E-2,-5.062627792E-2,9.243011475E-3
6.232459259E0,-3.315216303E-2,-2.954816818E-2,9.118080139E-3
6.242566692E0,-9.379982948E-3,-2.022528648E-2,1.384258270E-2
6.252673958E0,-6.847202778E-3,-6.001353264E-3,1.621818542E-2
6.262781191E0,-1.846551895E-2,-3.664135933E-3,-2.921104431E-3
6.272888391E0,-1.198172569E-3,-6.349444389E-3,1.142311096E-2
6.282995524E0,8.890748024E-3,-4.305005074E-3,2.814960480E-2
6.293102657E0,9.186685085E-3,1.895427704E-4,2.811241150E-2
6.303209790E0,4.824221134E-3,4.633188248E-3,-3.051757812E-3
6.313316923E0,5.406260490E-3,9.132862091E-3,-4.616165161E-2
6.323423923E0,3.840327263E-3,-6.657838821E-4,-4.853916168E-2
6.333551456E0,1.368051767E-2,-5.806803703E-3,-1.267814636E-2
6.343679089E0,2.004534006E-2,-1.567721367E-2,4.945087433E-2
6.353806589E0,2.819633484E-2,5.536317825E-3,1.019506454E-1
6.363933955E0,4.415786266E-2,2.415382862E-2,1.376962662E-1
6.374061221E0,4.923486710E-2,2.803468704E-2,2.596387863E-1
6.384188454E0,-2.102255821E-3,9.848904610E-2,2.618551254E-1
6.394295987E0,4.145085812E-3,1.132385731E-1,3.162384033E-3
6.404403587E0,-1.682889462E-2,5.969429016E-2,-2.067565918E-2
6.414537720E0,-4.778265953E-3,4.469287395E-2,-2.031745911E-1
6.424671586E0,-1.660108566E-2,4.990065098E-2,-4.487905502E-1
6.434806019E0,-6.246423721E-2,2.574062347E-2,-4.446125031E-1
6.444940385E0,-8.751356602E-2,-4.271268845E-4,-2.285804749E-1
6.455074785E0,-6.843745708E-2,-3.019869328E-2,5.546760559E-2
6.465209118E0,1.061290503E-2,-4.714751244E-2,3.518524170E-1
6.475317218E0,6.863778830E-2,-6.700277328E-2,4.848890305E-1
6.485425384E0,5.335497856E-2,-1.111540794E-1,3.823184967E-1
6.495533584E0,7.768452168E-3,-1.274262667E-1,2.523288727E-1
6.505641817E0,-3.785556555E-2,-1.000317335E-1,8.796882629E-2
6.515750117E0,-2.686393261E-2,-9.466886520E-3,9.448051453E-3
6.525858417E0,-4.594582319E-2,7.743132114E-2,-8.809089661E-2
6.535966717E0,-2.748519182E-2,2.487219572E-1,-1.611413956E-1
6.546075050E0,1.308834553E-2,3.064800501E-1,-2.190294266E-1
6.556184216E0,-2.783656120E-3,2.886587381E-1,-1.875734329E-1
6.566293316E0,-9.196579456E-3,1.628363132E-1,-1.054229736E-1
6.576419482E0,-2.020514011E-2,1.919901371E-2,-5.890178680E-2
6.586545648E0,-1.439261436E-2,-1.091228724E-1,-1.457691193E-2
6.596671981E0,-1.351732016E-2,-2.252513170E-1,8.236885071E-3
6.606798181E0,8.573651314E-3,-2.602781057E-1,-1.544952393E-4
6.616924214E0,3.214621544E-2,-2.509503365E-1,4.861927032E-2
6.627050247E0,9.201169014E-3,-2.068904638E-1,1.186265945E-1
6.637155513E0,-9.317755699E-3,-1.555995941E-1,1.115169525E-1
6.647260613E0,-3.382444382E-2,-5.997633934E-2,3.004264832E-2
6.658577955E0,-7.278680801E-3,3.246462345E-2,-3.238010406E-2
6.668633955E0,4.392504692E-3,9.596860409E-2,-4.220962524E-2
6.678690955E0,1.257574558E-2,1.212383509E-1,-3.055953979E-2
6.688745955E0,6.370455027E-2,1.325412989E-1,3.156661987E-4
6.698800955E0,8.182835579E-2,1.204479933E-1,2.176189423E-2
6.708856205E0,7.364153862E-2,1.014161110E-1,6.959629059E-2
6.718911805E0,4.145604372E-2,9.692990780E-2,1.174621582E-1
6.728967138E0,1.915454865E-3,7.090878487E-2,1.222238541E-1
6.739022138E0,-2.541196346E-2,4.496121407E-2,8.631706238E-2
6.749076763E0,-2.781915665E-2,3.351783752E-2,2.896213531E-2
6.759131207E0,-2.957797050E-2,2.467012405E-2,2.197360992E-2
6.769185307E0,-2.702295780E-3,3.248536587E-2,4.368972778E-2
6.779239307E0,4.887163639E-3,-2.951860428E-3,2.466297150E-2
6.789293390E0,-6.657898426E-3,-1.481485367E-2,1.992702484E-2
6.799347543E0,-3.017508984E-2,-3.407669067E-2,3.177642822E-3
6.809401543E0,-7.293087244E-2,-5.576395988E-2,3.173828125E-3
6.819489943E0,-7.262790203E-2,-7.270896435E-2,-3.275394440E-2
6.829576193E0,-6.989789009E-2,-7.981193066E-2,-2.553081512E-2
6.839660663E0,-7.184296846E-2,-8.159363270E-2,5.751609802E-3
6.849743774E0,-6.711661816E-3,-5.691134930E-2,3.227424622E-2
6.859825300E0,-1.103842258E-2,-5.615901947E-2,1.809597015E-2
6.869905550E0,1.341629028E-2,-1.498627663E-2,2.062416077E-2
6.879984740E0,3.296935558E-2,4.234850407E-2,1.344585419E-2
6.890062876E0,4.056686163E-2,1.563632488E-2,-5.754470825E-3
6.901307955E0,2.693295479E-3,-1.596820354E-2,-7.285690308E-2
6.911365955E0,-8.826315403E-3,-1.396918297E-2,-8.487415314E-2
6.921425955E0,-1.794081926E-2,2.651333809E-3,-8.486747742E-2
6.931483955E0,-2.481538057E-2,-2.118682861E-2,2.291488647E-2
6.941541288E0,6.319284439E-3,-2.097368240E-2,1.019687653E-1
6.951599038E0,6.638526917E-3,-6.375789642E-3,1.307697296E-1
6.961657038E0,-8.878469467E-3,-8.970379829E-3,1.715221405E-1
6.971715204E0,5.977153778E-4,3.112196922E-2,1.260824203E-1
6.981773061E0,1.366734505E-4,7.312250137E-2,-1.108407974E-1
6.991830561E0,2.457195520E-2,-2.288544178E-2,-3.160095215E-2
7.001888116E0,1.008331776E-3,-3.002047539E-2,-8.225631714E-2
7.011945116E0,2.700829506E-2,3.191792965E-2,-3.183107376E-1
7.022001388E0,-3.297352791E-2,8.192026615E-2,-4.057798386E-1
7.032057471E0,-2.650600672E-2,4.530096054E-2,-2.025279999E-1
7.042115317E0,-2.425837517E-2,-1.699030399E-2,3.574848175E-2
7.052173031E0,2.784544230E-2,-3.788173199E-2,3.533267975E-1
7.062264631E0,9.596800804E-2,-5.867815018E-2,4.526958466E-1
7.072353818E0,7.004958391E-2,-8.205521107E-2,3.309173584E-1
7.082440994E0,-5.378425121E-3,-1.081569195E-1,2.033681870E-1
7.092526438E0,-7.176059484E-2,-7.777917385E-2,4.636859894E-2
7.102610280E0,-1.041222811E-1,-3.393650055E-2,-5.601882935E-3
7.112692830E0,-1.144906282E-1,8.845317364E-2,-5.253887177E-2
7.122773925E0,-9.675675631E-2,2.043144703E-1,-1.324253082E-1
7.132853879E0,-2.488744259E-2,2.831366062E-1,-1.348533630E-1
7.144078955E0,3.866523504E-2,2.399889231E-1,-9.837341309E-2
7.154135955E0,6.610655785E-2,1.405156851E-1,-4.252529144E-2
7.164192955E0,4.529082775E-2,-1.135087013E-2,1.380920410E-3
7.174249955E0,4.338568449E-2,-8.920824528E-2,2.128505707E-2
7.184306955E0,2.479809523E-2,-2.297939062E-1,-4.389762878E-3
7.194363205E0,2.289539576E-2,-2.490847111E-1,-4.699230194E-2
7.204419205E0,8.082747459E-3,-2.214066982E-1,1.070594788E-2
7.214475538E0,-1.762622595E-2,-1.725242138E-1,7.062816620E-2
7.224531680E0,-4.316157103E-2,-9.554994106E-2,1.072597504E-2
7.234588305E0,-6.016910076E-2,1.738834381E-2,-7.300758362E-2
7.244645082E0,-5.260568857E-2,5.140352249E-2,-5.851268768E-2
7.254701682E0,-4.773378372E-3,8.817708492E-2,1.512527466E-3
7.264758136E0,2.758574486E-2,1.180117130E-1,2.319622040E-2
7.274814636E0,5.760520697E-2,7.610964775E-2,3.532695770E-2
7.284871174E0,8.344447613E-2,7.704055309E-2,9.054374695E-2
7.294927959E0,8.046281338E-2,3.420519829E-2,1.097059250E-1
7.305026159E0,4.844456911E-2,4.809463024E-2,1.239070892E-1
7.315121909E0,1.879787445E-2,8.772504330E-2,1.116504669E-1
7.325215261E0,1.333159208E-2,1.006797552E-1,-1.797294617E-2
7.335306705E0,-1.088452339E-2,9.220480919E-2,-9.247589111E-2
7.345396231E0,-1.570785046E-2,4.831659794E-2,-6.630229950E-2
7.355484281E0,-5.121088028E-2,-6.705641747E-3,2.711105347E-2
7.365570947E0,-5.563491583E-2,-2.733957767E-2,7.281398773E-2
7.375656401E0,-3.864580393E-2,-5.962395668E-2,5.871582031E-2
7.386972955E0,-3.089648485E-2,-4.643464088E-2,4.464054108E-2
7.397029955E0,-3.527998924E-2,-4.366934299E-2,2.559280396E-2
7.407088955E0,-2.837276459E-2,-4.249060154E-2,3.490161896E-2
7.417147455E0,-1.210814714E-2,-2.983570099E-2,9.994506836E-4
7.427205788E0,-1.251876354E-2,1.905322075E-3,-2.333354950E-2
7.437263288E0,1.750648022E-3,-8.904457092E-3,-4.034996033E-2
7.447321488E0,2.364921570E-2,1.218283176E-2,-4.520416260E-2
7.457379654E0,1.696598530E-2,-6.321191788E-3,-6.418991089E-2
7.467437082E0,1.748847961E-2,-7.437467575E-3,-5.670833588E-2
7.477494707E0,5.949974060E-3,5.865335464E-3,-4.683017731E-2
7.487552373E0,-1.335352659E-2,-3.158795834E-2,1.215934753E-3
7.497610173E0,1.245409250E-2,-1.477479935E-2,4.907131195E-2
7.507667991E0,2.166223526E-2,-1.321673393E-2,7.760429382E-2
7.517725824E0,3.130537271E-2,-1.465499401E-2,6.295299530E-2
7.527783900E0,2.284240723E-2,-1.134574413E-2,1.345634460E-1
7.537842328E0,8.026361465E-3,6.532549858E-3,7.938575745E-2
7.547941194E0,1.936489344E-2,1.498305798E-2,-1.024856567E-1
7.558037819E0,-1.670610905E-2,-6.144428253E-2,-9.742355347E-2
7.568132113E0,-1.414185762E-2,-4.372811317E-2,-1.576681137E-1
7.578224501E0,-1.359754801E-2,1.686644554E-2,-2.882804871E-1
7.588314922E0,-5.398690701E-2,5.833053589E-2,-2.438240051E-1
7.598403772E0,-5.380982161E-2,6.515026093E-2,-1.026878357E-1
7.608491057E0,-3.072696924E-2,1.729977131E-2,1.159114838E-1
7.618577057E0,2.527326345E-2,3.745007515E-2,3.659648895E-1
7.628697013E0,1.370797753E-1,5.364298820E-3,3.930215836E-1
7.638814471E0,8.142602444E-2,-4.041600227E-2,2.729043961E-1
7.648929591E0,2.156174183E-2,-6.642770767E-2,1.400175095E-1
7.659042475E0,-4.546946287E-2,-4.876458645E-2,-5.196571350E-3
7.669153289E0,-7.277840376E-2,-9.177923203E-3,-5.702590942E-2
7.679262181E0,-8.486294746E-2,8.809351921E-2,-7.492542267E-2
7.689369215E0,-4.707050323E-2,1.888471842E-1,-1.208915710E-1
7.699474515E0,-4.926133156E-2,2.474424839E-1,-9.670829773E-2
7.709579581E0,-1.239317656E-2,1.714307070E-1,-4.336738586E-2
7.719684647E0,-8.768856525E-3,5.757451057E-2,7.692337036E-3
7.729789747E0,6.658434868E-3,-5.420625210E-2,2.755355835E-2
7.739894880E0,4.168748856E-4,-1.308506727E-1,2.330970764E-2
7.749999880E0,1.241147518E-3,-2.227718830E-1,-4.576969147E-2
7.760104846E0,1.366615295E-3,-2.080150843E-1,-6.962299347E-2
7.770209912E0,-9.535431862E-3,-1.673603058E-1,2.603530884E-2
7.780315012E0,-1.400119066E-2,-1.146833897E-1,3.785037994E-2
7.790437345E0,-1.758998632E-2,-3.562533855E-2,-5.325317383E-3
7.800559578E0,-3.663063049E-2,7.841706276E-3,-3.397274017E-2
7.810681744E0,-1.919615269E-2,6.363284588E-2,-1.701736450E-2
7.820803877E0,2.344071865E-3,6.938099861E-2,2.387523651E-2
7.830925910E0,2.274537086E-2,8.707284927E-2,4.073619843E-2
7.841047710E0,4.551059008E-2,8.972120285E-2,5.506324768E-2
7.851149243E0,5.885124207E-2,8.460855484E-2,7.646846771E-2
7.861250609E0,5.778861046E-2,5.728006363E-2,9.295082092E-2
7.871379109E0,4.232525826E-2,6.299531460E-2,8.299732208E-2
7.881507342E0,1.984000206E-2,4.728186131E-2,4.434967041E-2
7.891635575E0,9.695410728E-3,7.752633095E-2,1.300621033E-2
7.901763741E0,1.687675714E-2,5.337023735E-2,2.014636993E-2
7.911891841E0,-1.400947571E-2,3.205084801E-2,2.499771118E-2
7.922019807E0,-3.056097031E-2,1.577472687E-2,3.229236603E-2
7.932120707E0,-4.206234217E-2,-1.705539227E-2,1.809978485E-2
7.942221507E0,-6.051570177E-2,-2.872693539E-2,-1.530647278E-2
7.952322007E0,-3.362184763E-2,-6.458938122E-2,-2.483081818E-2
7.962422440E0,-4.542917013E-2,-5.053496361E-2,-2.488040924E-2
7.972522806E0,-6.706631184E-2,-7.013642788E-2,-1.779460907E-2
7.982623072E0,-9.607672691E-3,-4.645550251E-2,-1.784610748E-2
7.992723272E0,-3.346472979E-2,-4.420852661E-2,1.086044312E-2
8.002823538E0,5.132079124E-3,-3.683125973E-2,-5.839347839E-3
8.012923904E0,5.498707294E-3,-1.736152172E-2,6.223678589E-3
8.023024270E0,2.016764879E-2,2.222299576E-3,-2.958106995E-2
8.033145436E0,-1.129508018E-3,-9.409189224E-3,-5.583000183E-2
8.043266636E0,5.759119987E-3,-1.892614365E-2,-3.429317474E-2
8.053387802E0,1.955026388E-2,-9.715795517E-3,5.417633057E-2
8.063508935E0,3.104287386E-2,-1.066052914E-2,8.747005463E-2
8.073630101E0,3.634899855E-2,9.435534477E-3,5.848979950E-2
8.083751067E0,2.618426085E-2,1.988244057E-2,7.507801056E-2
8.093854700E0,3.102183342E-2,6.404078007E-2,1.563987732E-1
8.103958266E0,1.975691319E-2,5.577290058E-2,-4.230117798E-2
8.114088566E0,-5.849003792E-4,-1.530194283E-2,-1.066341400E-1
8.124218966E0,-2.653712034E-2,-6.149816513E-2,-1.665248871E-1
8.134349299E0,-1.934885979E-3,-1.221346855E-2,-2.561016083E-1
8.144479765E0,-6.171429157E-2,2.964055538E-2,-2.091903687E-1
8.154610331E0,-9.103167057E-2,3.207683563E-2,-6.324672699E-2
8.164740831E0,-4.614347219E-2,3.255891800E-2,1.099605560E-1
8.174844164E0,2.735739946E-2,3.172111511E-2,3.529872894E-1
8.184947564E0,8.440309763E-2,1.454901695E-2,4.184761047E-1
8.195050864E0,1.069734693E-1,2.664089203E-3,2.677345276E-1
8.205154230E0,3.250849247E-2,-4.281330109E-2,1.256818771E-1
8.215257730E0,-1.094043255E-2,-3.634572029E-2,-1.699924469E-2
8.225361396E0,-6.194835901E-2,3.009915352E-3,-1.095476151E-1
8.235465062E0,-6.592720747E-2,8.015441895E-2,-1.131973267E-1
8.245568628E0,-7.116276026E-2,1.706032753E-1,-1.329622269E-1
8.255672328E0,-3.256744146E-2,2.260516882E-1,-1.084499359E-1
8.265776028E0,-2.172052860E-2,2.045289278E-1,-4.515171051E-2
8.275900328E0,-1.391232014E-3,7.064819336E-2,6.366252899E-2
8.286024661E0,-2.188771963E-2,-3.535580635E-2,9.329319000E-2
8.296148994E0,-1.481890678E-3,-1.331256628E-1,5.324268341E-2
8.306273260E0,-1.706814766E-2,-1.963100433E-1,-1.102161407E-2
8.316397526E0,-1.913225651E-2,-2.151533365E-1,-8.515357971E-2
8.326521626E0,-1.089638472E-2,-1.961113214E-1,-1.345157623E-2
8.336624692E0,-2.779853344E-2,-1.169000864E-1,3.188514709E-2
8.346727625E0,-1.529562473E-2,-5.386066437E-2,-6.404876709E-3
8.358104955E0,-1.572012901E-2,1.938688755E-2,-4.924869537E-2
8.368153955E0,-1.545089483E-2,6.940674782E-2,-1.767635345E-2
8.378232955E0,3.393709660E-3,1.028348207E-1,1.388549805E-2
8.388297455E0,3.113573790E-2,1.171680689E-1,4.780292511E-2
8.398358455E0,7.293224335E-2,1.095619202E-1,6.485939026E-2
8.408417955E0,8.110356331E-2,7.485342026E-2,6.020736694E-2
8.418476955E0,7.258242369E-2,6.810033321E-2,6.019306183E-2
8.428535288E0,6.163066626E-2,4.152035713E-2,7.440662384E-2
8.438592288E0,3.378129005E-2,7.714760303E-2,7.423591614E-2
8.448648538E0,2.779930830E-2,7.246541977E-2,5.501461029E-2
8.458704760E0,9.603500366E-4,7.313871384E-2,2.638244629E-2
8.468760860E0,-1.312500238E-2,5.764174461E-2,3.144454956E-2
8.478816587E0,-2.477699518E-2,1.846444607E-2,4.135131836E-2
8.488872003E0,-3.894096613E-2,-1.385331154E-3,2.734279633E-2
8.498927618E0,-5.292671919E-2,-1.659464836E-2,2.289581299E-2
8.508983332E0,-4.307866096E-2,-5.142033100E-2,1.595211029E-2
8.519072998E0,-6.469726562E-2,-3.857004642E-2,-3.028869629E-3
8.529160498E0,-6.453680992E-2,-5.479800701E-2,1.624393463E-2
8.539246086E0,-5.246329308E-2,-4.238379002E-2,1.394748688E-2
8.549329641E0,-2.376520634E-2,-4.189765453E-2,2.361869812E-2
8.559411483E0,-6.856143475E-3,-2.208387852E-2,3.812885284E-2
8.569491783E0,7.710099220E-3,2.514600754E-3,2.391242981E-2
8.579570878E0,3.551244736E-3,8.079290390E-3,-1.419162750E-2
8.589648696E0,2.845281363E-2,1.596593857E-2,-1.158428192E-2
8.599759869E0,1.967072487E-2,2.135169506E-2,-3.534507751E-2
8.609868577E0,2.012425661E-2,1.970911026E-2,-4.234123230E-2
8.619975297E0,-5.885243416E-3,-1.301312447E-2,-2.060890198E-2
8.630080143E0,-1.033574343E-2,-5.213499069E-3,1.306056976E-2
8.640183217E0,-1.427984238E-2,-1.959347725E-2,3.706359863E-2
8.650284824E0,-1.588833332E-2,-1.779448986E-2,1.207990646E-1
8.660385030E0,4.490554333E-3,1.947784424E-2,1.254701614E-1
8.670483863E0,9.582936764E-3,3.459870815E-2,9.900665283E-2
8.680581929E0,2.086520195E-2,3.034603596E-2,1.635866165E-1
8.690680229E0,-1.046568155E-2,8.108448982E-2,6.777763367E-2
8.700778529E0,-5.906164646E-3,9.602355957E-2,-2.313299179E-1
8.710876862E0,-4.758745432E-2,-3.650188446E-4,-2.406587601E-1
8.720975128E0,-4.813420773E-2,-5.438184738E-2,-1.957750320E-1
8.731073428E0,-4.226332903E-2,-2.526628971E-2,-2.758512497E-1
8.741171894E0,-1.824897528E-2,-4.960501194E-2,-2.785797119E-1
8.751270294E0,-1.521509886E-2,-6.557285786E-2,-1.460933685E-1
8.761386094E0,-1.269537210E-2,-1.332002878E-1,3.388748169E-1
8.771501960E0,8.407461643E-2,-8.781385422E-2,5.671663284E-1
8.781618026E0,1.010289192E-1,-3.529584408E-2,3.634605408E-1
8.791734259E0,8.258408308E-2,4.025256634E-2,1.755828857E-1
8.801850425E0,1.105254889E-2,1.215522289E-1,7.806873322E-2
8.811966558E0,-9.969353676E-3,1.733279228E-1,-1.478576660E-2
8.822065824E0,-6.489378214E-2,2.058732510E-1,-5.931377411E-2
8.832165090E0,-2.690607309E-2,2.096146345E-1,-1.603937149E-1
8.843484955E0,-2.640515566E-2,2.086634636E-1,-2.053747177E-1
8.853538955E0,-1.931434870E-2,1.151826382E-1,-1.198034286E-1
8.863588955E0,-2.945876122E-2,-8.598685265E-3,-2.972602844E-3
8.873641955E0,-4.059636593E-2,-1.068180799E-1,8.729743958E-2
8.883695621E0,-6.727904081E-2,-2.045513391E-1,1.076631546E-1
8.893748871E0,-5.875599384E-2,-2.404372692E-1,6.037425995E-2
8.903802671E0,-5.313855410E-2,-2.290753126E-1,1.003837585E-2
8.913856504E0,-1.072704792E-3,-2.103873491E-1,-7.199001312E-2
8.923910075E0,1.586025953E-2,-1.418641806E-1,-2.973461151E-2
8.933963450E0,1.247179508E-2,-6.801962852E-2,7.748603821E-3
8.944016561E0,7.140517235E-3,7.306337357E-3,-5.020046234E-2
8.954069161E0,-2.088004351E-2,5.337738991E-2,-7.176303864E-2
8.964121251E0,-9.512364864E-3,1.036179066E-1,-3.542423248E-2
8.974173417E0,-9.962558746E-3,1.021524668E-1,3.703594208E-2
8.984225493E0,3.959417343E-2,9.350001812E-2,7.595634460E-2
8.994277350E0,2.645456791E-2,8.373689651E-2,6.673431396E-2
9.004370616E0,6.112885475E-2,7.430911064E-2,8.103370667E-2
9.014461428E0,4.313230515E-2,5.834114552E-2,7.103729248E-2
9.024550133E0,2.738183737E-2,4.117643833E-2,5.360603333E-2
9.034636855E0,6.866097450E-3,3.608775139E-2,3.141021729E-2
9.044721960E0,6.083250046E-3,4.675614834E-2,-2.430915833E-3
9.054805510E0,-2.054452896E-2,3.427851200E-2,-1.692104340E-2
9.064887700E0,-2.941828966E-2,-2.751350403E-4,3.129005432E-2
9.074968518E0,-9.580612183E-3,-2.959299088E-2,6.043815613E-2
9.085083170E0,-5.425906181E-2,-5.650627613E-2,5.847263336E-2
9.095195586E0,-3.633654118E-2,-5.066871643E-2,5.398654938E-2
9.105305906E0,-3.782606125E-2,-4.837739468E-2,4.445934296E-2
9.115414329E0,-2.510040998E-2,-2.787685394E-2,1.078701019E-2
9.125520884E0,-1.973736286E-2,-3.196740150E-2,3.306388855E-3
9.135625812E0,-2.135622501E-2,-7.237911224E-3,-3.286933899E-2
9.145729156E0,-1.556521654E-2,-1.055777073E-2,-4.734230042E-2
9.155831122E0,4.689455032E-3,-1.080548763E-2,-2.815341949E-2
9.165933288E0,-6.295442581E-3,-2.935171127E-2,-8.800506592E-3
9.176035554E0,1.141482592E-2,-1.639413834E-2,2.499198914E-2
9.186137920E0,1.486521959E-2,8.697748184E-3,3.727626801E-2
9.196240620E0,1.328939199E-2,4.574894905E-3,2.071571350E-2
9.206343453E0,9.014189243E-3,1.200354099E-2,-2.229118347E-2
9.216446486E0,-9.963452816E-3,-9.888172150E-3,-4.150009155E-2
9.226549652E0,2.011656761E-3,1.317703724E-2,-3.449440002E-2
9.236652852E0,-1.904708147E-2,-1.900076866E-2,6.033897400E-3
9.246772918E0,-4.909133911E-2,1.369476318E-3,8.249664307E-2
9.256893318E0,-2.221339941E-2,-9.300947189E-3,1.349916458E-1
9.267013951E0,3.963112831E-4,-1.564192772E-2,1.587047577E-1
9.277134684E0,-8.862316608E-3,6.289005280E-3,1.561193466E-1
9.287255484E0,-1.184183359E-2,2.032864094E-2,1.822433472E-1
9.297376417E0,-2.619624138E-2,5.858457088E-2,3.848457336E-2
9.307476617E0,2.546882629E-2,9.735643864E-2,-5.789165497E-1
9.317576817E0,1.823252439E-2,-1.503026485E-2,-3.701009750E-1
9.328958955E0,2.600830793E-2,-1.034110785E-1,-1.574058533E-1
9.339012955E0,3.169447184E-2,-1.254193783E-1,-1.462354660E-1
9.349066955E0,-1.303881407E-2,-1.395834684E-1,-6.742095947E-2
9.359121455E0,-3.381735086E-2,-1.427396536E-1,2.227602005E-1
9.369175788E0,-3.055047989E-2,-1.352939606E-1,5.559654236E-1
9.379230538E0,2.617007494E-2,-1.926541328E-2,4.525070190E-1
9.389285538E0,5.476313829E-2,8.163332939E-2,1.899719238E-1
9.399340704E0,4.306435585E-2,1.855013371E-1,-7.077884674E-2
9.409395846E0,-1.530772448E-2,2.427812815E-1,-4.433345795E-2
9.419451346E0,-4.973673820E-2,2.257978916E-1,-9.163188934E-2
9.429507123E0,-5.546689034E-2,2.254381180E-1,-1.619558334E-1
9.439563223E0,-1.728957891E-2,1.971986294E-1,-2.071695328E-1
9.449619495E0,5.187571049E-3,1.213277578E-1,-1.435718536E-1
9.459675745E0,3.756290674E-2,-8.927822113E-3,9.247779846E-3
9.469733129E0,1.626592875E-2,-1.363239288E-1,1.237802505E-1
9.479790486E0,-1.594328880E-2,-2.269780636E-1,1.541070938E-1
9.489883886E0,-3.463143110E-2,-2.776322365E-1,1.119270325E-1
9.499974886E0,-5.108559132E-2,-2.480933666E-1,1.873970032E-2
9.510063827E0,-2.232551575E-2,-2.046438456E-1,-5.109691620E-2
9.520151104E0,-4.207551479E-3,-1.148710251E-1,-1.548480988E-1
9.530236946E0,5.467534065E-4,-5.402767658E-2,-1.007318497E-1
9.540321396E0,6.206333637E-3,2.757191658E-3,-8.010673523E-2
9.550404396E0,2.648597956E-2,4.459869862E-2,-8.543777466E-2
9.560486305E0,1.714229584E-4,6.963574886E-2,-8.301639557E-2
9.570602131E0,-1.303702593E-2,9.214639664E-2,-1.541137695E-2
9.580715506E0,-1.433432102E-3,7.289612293E-2,5.252838135E-2
9.590826706E0,3.696209192E-2,9.175622463E-2,8.216094971E-2
9.600935821E0,5.320638418E-2,8.297574520E-2,9.233283997E-2
9.611042895E0,5.195784569E-2,8.670032024E-2,8.531761169E-2
9.621148073E0,1.701015234E-2,5.272793770E-2,8.032512665E-2
9.631251555E0,8.461713791E-3,4.413247108E-2,3.683948517E-2
9.641353421E0,1.641499996E-2,1.428580284E-2,-6.607055664E-3
9.651455287E0,-1.471340656E-3,1.255249977E-2,-3.768920898E-2
9.661557153E0,-1.897770166E-2,-5.300283432E-3,-5.664157867E-2
9.671659019E0,-3.837239742E-2,-1.911568642E-2,-3.213024139E-2
9.681760819E0,-1.672142744E-2,-3.253221512E-2,4.516124725E-2
9.691862485E0,-3.061699867E-2,-5.350947380E-2,5.297660828E-2
9.701964118E0,-1.814240217E-2,-5.152642727E-2,6.059646606E-2
9.712065818E0,-1.555079222E-2,-4.112792015E-2,4.401874542E-2
9.722167451E0,-5.951702595E-3,-6.022584438E-2,1.769447327E-2
9.732286517E0,1.045525074E-3,-4.607319832E-2,-1.109409332E-2
9.742405350E0,-1.360070705E-2,-2.940297127E-3,-4.702091217E-2
9.752524050E0,-1.812076569E-2,-6.912112236E-3,-7.317161560E-2
9.762642650E0,-4.157310724E-2,-1.488292217E-2,-3.377914429E-3
9.772760750E0,-2.937483788E-2,-1.033318043E-2,4.974651337E-2
9.782878883E0,-2.941840887E-2,6.268262863E-3,6.455898285E-2
9.792978916E0,-3.061830997E-3,1.772248745E-2,4.099750519E-2
9.803079082E0,-1.483768225E-2,1.434969902E-2,1.975059509E-2
9.814430955E0,4.670917988E-3,2.729415894E-2,-3.748512268E-2
9.824488955E0,2.879965305E-2,2.332913876E-2,-4.688072205E-2
9.834551955E0,-4.919290543E-3,7.616400719E-3,-2.513694763E-2
9.844612955E0,-7.789850235E-3,1.136863232E-2,3.830909729E-3
9.854673955E0,-3.163909912E-2,-2.507627010E-2,3.534030914E-2
9.864734205E0,-1.207154989E-2,1.039350033E-2,1.099891663E-1
9.874795005E0,-4.324972630E-3,-1.463866234E-2,1.438169479E-1
9.884856005E0,1.130789518E-2,5.328655243E-5,1.631374359E-1
9.894916862E0,-2.018690109E-2,-1.287472248E-2,1.439495087E-1
9.904977987E0,-5.554586649E-2,3.830122948E-2,1.295146942E-1
9.915039209E0,-2.874386311E-2,7.308495045E-2,-3.251924515E-1
9.925100309E0,-5.348086357E-3,1.516461372E-2,-5.685710907E-1
9.935161672E0,-5.050301552E-4,-7.643401623E-2,-2.207479477E-1
9.945223005E0,4.977464676E-2,-8.568096161E-2,-7.981681824E-2
9.955284389E0,1.889115572E-2,-8.852052689E-2,-1.687669754E-1
9.965345817E0,-4.152673483E-2,-1.419112682E-1,1.187400818E-1
9.975441683E0,-7.956540585E-2,-1.643018723E-1,4.687356949E-1
9.985535308E0,-4.611831903E-2,-8.918309212E-2,5.525188446E-1
9.995627072E0,5.066269636E-2,1.029514074E-1,1.900329590E-1
1.000571718E1,6.849986315E-2,1.923391819E-1,-8.460235596E-2
1.001580560E1,4.200351238E-2,2.269432545E-1,-1.153516769E-1
1.002589265E1,-4.055142403E-3,2.200778723E-1,-1.362190247E-1
1.003597851E1,-3.858834505E-2,2.226141691E-1,-1.801347733E-1
1.004606319E1,-1.765537262E-2,1.926120520E-1,-2.084980011E-1
1.005618176E1,1.738846302E-3,1.034159660E-1,-1.112031937E-1
1.006629796E1,-2.247470617E-2,-2.740240097E-2,9.218120575E-2
1.007641192E1,-2.843302488E-2,-1.514817476E-1,1.780996323E-1
1.008652396E1,-2.283251286E-2,-2.539342642E-1,1.701488495E-1
1.009663411E1,-4.153156281E-2,-2.904199362E-1,1.231622696E-1
1.010674275E1,-4.101210833E-2,-2.710357904E-1,4.424190521E-2
1.011684989E1,-4.683077335E-3,-2.378356457E-1,-8.795928955E-2
1.012695556E1,1.625502110E-2,-1.433367729E-1,-1.677627563E-1
1.013706119E1,3.581672907E-2,-6.278657913E-2,-2.116785049E-1
1.014716702E1,-2.668881416E-2,1.421380043E-2,-7.822513580E-2
1.015727302E1,-4.118686914E-2,7.540917397E-2,9.943962097E-3
1.016737912E1,-2.888417244E-2,1.258968115E-1,1.461029053E-2
1.017748522E1,-4.197609425E-2,9.664285183E-2,-9.042739868E-3
1.018759126E1,-2.035951614E-2,9.233582020E-2,6.816196442E-2
1.019769819E1,1.108676195E-2,6.871891022E-2,1.190185547E-1
1.020780502E1,4.521596432E-2,4.876291752E-2,8.347892761E-2
1.021793212E1,7.878977060E-2,2.706742287E-2,2.359867096E-2
1.022805925E1,2.990967035E-2,3.050327301E-2,5.676174164E-2
1.023818635E1,1.853108406E-2,3.333878517E-2,5.382633209E-2
1.024831339E1,-2.164506912E-2,5.559599400E-2,1.023960114E-2
1.025844042E1,-2.256190777E-2,4.584276676E-2,-2.578258514E-2
1.026856749E1,-2.742594481E-2,3.500723839E-2,-5.189323425E-2
1.027867732E1,-2.226632833E-2,1.779043674E-2,-1.555728912E-2
1.028878715E1,-1.454633474E-2,-2.771973610E-2,3.045940399E-2
1.030024596E1,-2.366596460E-2,-7.100260258E-2,6.206989288E-2
1.031030496E1,-1.124912500E-2,-6.713604927E-2,6.958866119E-2
1.032036396E1,-2.074617147E-2,-9.300100803E-2,6.490325928E-2
1.033042246E1,-3.303718567E-2,-9.351229668E-2,1.688957214E-2
1.034047979E1,-4.076117277E-2,-7.082486153E-2,-1.932334900E-2
1.035053654E1,-1.718723774E-2,-5.291485786E-2,-6.749057770E-2
1.036059334E1,1.128339767E-2,-5.146825314E-2,-5.812740326E-2
1.037065000E1,-1.508885622E-2,-6.186008453E-3,-5.338382721E-2
1.038070586E1,1.824140549E-3,3.820180893E-3,-2.455329895E-2
1.039076149E1,-7.541954517E-3,2.610182762E-2,2.110290527E-2
1.040081726E1,2.177238464E-3,1.967644691E-2,2.605724335E-2
1.041087366E1,-2.546429634E-3,1.776802540E-2,1.658439636E-2
1.042093066E1,2.517402172E-3,2.017617226E-2,1.421451569E-2
1.043098791E1,1.704043150E-2,2.233517170E-2,3.572750092E-2
1.044104537E1,3.361701965E-5,5.106925964E-4,2.128601074E-2
1.045110280E1,-1.713907719E-2,7.807135582E-3,-5.060195923E-3
1.046120000E1,-1.516616344E-2,3.544092178E-3,-1.216888428E-2
1.047129475E1,-2.025955915E-2,1.422011852E-2,-2.394008636E-2
1.048138728E1,-2.719140053E-2,-4.033446312E-3,4.330158234E-2
1.049147778E1,-2.438277006E-2,-3.459835052E-2,9.133243561E-2
1.050156657E1,2.139174938E-2,-6.121397018E-3,1.367931366E-1
1.051165357E1,2.161884308E-2,-4.818201065E-3,1.677122116E-1
1.052173914E1,2.964735031E-3,5.078315735E-3,1.529636383E-1
1.053182332E1,-5.261361599E-2,4.578745365E-2,9.756183624E-2
1.054313396E1,-3.586858511E-2,7.507061958E-2,-3.118400574E-1
1.055319196E1,-9.966492653E-4,-4.854047298E-2,-3.280239105E-1
1.056324296E1,1.709681749E-2,-1.319676638E-1,-1.096677780E-1
1.057329696E1,5.765384436E-2,-8.055436611E-2,-1.484403610E-1
1.058335029E1,4.894739389E-2,-6.986284256E-2,-3.284912109E-1
1.059340329E1,-2.342045307E-2,-7.555234432E-2,-6.017494202E-2
1.060345709E1,-7.416993380E-2,-1.160029173E-1,3.354721069E-1
1.061351142E1,-1.046985388E-2,-1.033202410E-1,5.824441910E-1
1.062356571E1,6.761705875E-2,5.449295044E-3,3.736057281E-1
1.063362021E1,6.131273508E-2,1.111590862E-1,5.606174469E-2
1.064367509E1,1.691722870E-2,1.552097797E-1,-6.340312958E-2
1.065373009E1,-1.721447706E-2,1.746728420E-1,-1.182870865E-1
1.066378528E1,-3.328824043E-2,2.017462254E-1,-1.271886826E-1
1.067384069E1,-4.227352142E-2,2.134152651E-1,-1.583261490E-1
1.068389631E1,-3.260833025E-2,2.140475512E-1,-1.522541046E-1
1.069395231E1,-1.700383425E-2,6.521546841E-2,-7.828903198E-2
1.070404984E1,-1.645058393E-2,-4.874587059E-2,3.181743622E-2
1.071414484E1,-1.738297939E-2,-1.587955952E-1,1.105146408E-1
1.072423760E1,-2.171516418E-2,-2.378582954E-1,1.479206085E-1
1.073432860E1,-4.082673788E-2,-2.607688904E-1,1.390485764E-1
1.074441813E1,-3.176456690E-2,-2.135679722E-1,5.985832214E-2
1.075450618E1,3.233551979E-3,-1.451642513E-1,-5.583858490E-2
1.076459294E1,2.322638035E-2,-9.467041492E-2,-1.502714157E-1
1.077467853E1,3.744602203E-2,-2.225935459E-2,-6.992912292E-2
1.078479775E1,-2.308773994E-2,1.538097858E-2,4.891300201E-2
1.079491437E1,-2.555328608E-2,9.275865555E-2,2.894401550E-3
1.080502857E1,-2.858358622E-2,1.218087673E-1,-1.191959381E-1
1.081514053E1,-2.056223154E-2,1.339343786E-1,-4.917907715E-2
1.082525035E1,-1.274013519E-2,1.232132912E-1,7.132339478E-2
1.083535831E1,3.968524933E-2,7.877397537E-2,1.390447617E-1
1.084546455E1,4.905337095E-2,6.361854076E-2,1.010475159E-1
1.085556932E1,5.331033468E-2,3.568851948E-2,6.955623627E-2
1.086567408E1,2.793174982E-2,2.541756630E-2,6.402397156E-2
1.087577875E1,-2.159118652E-2,2.665257454E-2,5.359363556E-2
1.088588365E1,-2.497673035E-2,4.520773888E-2,2.346038818E-4
1.089598882E1,-1.790994406E-2,4.376387596E-2,-5.752849579E-2
1.090609395E1,-1.740181446E-2,2.514493465E-2,-2.864933014E-2
1.091619912E1,-1.430583000E-2,1.290917397E-2,2.963066101E-3
1.092630448E1,-3.719449043E-3,-1.993203163E-2,5.873394012E-2
1.093640998E1,-1.687753201E-2,-4.825544357E-2,7.616043091E-2
1.094653258E1,-1.748561859E-3,-5.343723297E-2,7.184028625E-2
1.095665538E1,-1.120334864E-2,-4.578018188E-2,3.124618530E-2
1.096677821E1,3.970861435E-4,-4.630136490E-2,1.195716858E-2
1.097690105E1,-2.638405561E-2,-3.551280499E-2,-1.226234436E-2
1.098702378E1,-1.483494043E-2,1.752734184E-3,-4.602622986E-2
1.099714631E1,1.535296440E-3,1.373052597E-3,-5.092334747E-2
1.100724795E1,-5.879402161E-3,-3.180384636E-3,-4.610538483E-2
1.101734958E1,6.127536297E-3,-9.574770927E-3,-7.634162903E-3
1.102747855E1,3.935158253E-3,1.519155502E-2,5.958747864E-2
1.103760741E1,-5.497336388E-4,2.277970314E-2,5.490493774E-2
1.104773618E1,4.520416260E-3,1.739287376E-2,5.001735687E-2
1.105786498E1,1.457637548E-2,5.220890045E-2,1.948356628E-3
1.106799374E1,5.313813686E-3,3.887450695E-2,-1.745891571E-2
1.107812234E1,-1.657187939E-3,3.801536560E-2,-5.645751953E-3
1.108822428E1,-4.011571407E-3,3.534042835E-2,-1.767063141E-2
1.109832631E1,-6.486833096E-3,4.691958427E-3,2.072715759E-2
1.110842824E1,-6.585597992E-3,3.408908844E-3,2.812671661E-2
1.111853018E1,-9.111821651E-3,-4.644870758E-3,1.645660400E-2
1.112863221E1,-2.634644508E-3,-5.345344543E-3,-2.156066895E-2
1.113873431E1,1.204431057E-3,-8.700370789E-3,-2.613162994E-2
1.114883634E1,-1.873928308E-2,-2.200400829E-2,-2.358341217E-2
1.115893821E1,-4.085814953E-2,-3.575575352E-2,1.959228516E-2
1.116904041E1,-2.212375402E-2,-3.804373741E-2,8.182907104E-2
1.117914264E1,2.571648359E-2,-2.403080463E-2,1.128787994E-1
1.118926221E1,1.445579529E-2,-1.563858986E-2,1.438179016E-1
1.119938167E1,1.365005970E-3,6.402134895E-3,1.698665619E-1
1.120950120E1,-3.966945410E-2,6.673109531E-2,2.044677734E-3
1.121962067E1,-1.635968685E-3,5.573475361E-2,-3.019475937E-1
1.122973990E1,-2.472174168E-2,-5.134248734E-2,-2.559700012E-1
1.123985897E1,-1.169323921E-2,-7.508409023E-2,-8.116340637E-2
1.124996090E1,-6.637573242E-3,-5.214345455E-2,-2.040348053E-1
1.126006267E1,7.316768169E-3,-3.375148773E-2,-2.761411667E-1
1.127019130E1,-2.449834347E-2,-4.795134068E-2,2.158164978E-3
1.128031994E1,-3.089666367E-3,-7.309699059E-2,2.928752899E-1
1.129044970E1,6.583470106E-2,-4.835760593E-2,4.776535034E-1
1.130057957E1,7.690948248E-2,2.183985710E-2,3.453779221E-1
1.131070963E1,4.252088070E-2,3.444790840E-2,1.476478577E-1
1.132083970E1,-1.384472847E-2,6.094408035E-2,5.004978180E-2
1.133094236E1,-4.625099897E-2,8.291411400E-2,-3.551292419E-2
1.134104496E1,-2.939641476E-2,1.388217211E-1,-3.678512573E-2
1.135114723E1,-1.550579071E-2,1.798557043E-1,-9.230422974E-2
1.136124936E1,-1.077151299E-2,2.085081339E-1,-1.062078476E-1
1.137135130E1,-2.416217327E-2,1.539193392E-1,-9.070396423E-2
1.138145330E1,-1.042294502E-2,9.316611290E-2,-1.267814636E-2
1.139156216E1,-1.828706264E-2,-2.569758892E-2,3.409004211E-2
1.140167090E1,4.146754742E-3,-1.407653093E-1,2.313423157E-2
1.141177976E1,6.508171558E-3,-1.879098415E-1,-2.565383911E-3
1.142188870E1,-1.052099466E-2,-2.104886770E-1,-3.822135925E-2
1.143201493E1,-6.067574024E-3,-1.961323023E-1,-7.895088196E-2
1.144214116E1,1.483559608E-4,-1.488062143E-1,-1.150550842E-1
1.145226746E1,5.275547504E-3,-1.012921333E-1,-7.553100586E-3
1.146239376E1,-4.310745001E-2,-4.127073288E-2,5.928993225E-2
1.147251983E1,-4.257088900E-2,-1.681005955E-2,2.812385559E-2
1.148264599E1,-7.210016251E-2,3.464043140E-2,-4.352474213E-2
1.149275479E1,-5.762505531E-2,7.711410522E-2,-7.906627655E-2
1.150286363E1,-4.139780998E-2,7.442080975E-2,3.280639648E-4
1.151436096E1,2.441751957E-2,8.340620995E-2,5.088043213E-2
1.152441896E1,6.587386131E-2,8.684134483E-2,5.814838409E-2
1.153447296E1,5.689740181E-2,7.746946812E-2,7.959842682E-2
1.154452746E1,6.441813707E-2,6.949281693E-2,1.103992462E-1
1.155458246E1,3.597229719E-2,4.650807381E-2,1.099414825E-1
1.156463821E1,4.074329138E-2,3.525173664E-2,7.589244843E-2
1.157469401E1,-4.455685616E-3,4.330611229E-2,3.471755981E-2
1.158475034E1,1.825064421E-2,2.560758591E-2,2.245903015E-2
1.159480662E1,3.149271011E-3,2.288150787E-2,2.951812744E-2
1.160486300E1,7.599532604E-3,-9.788274765E-4,2.711391449E-2
1.161491944E1,4.963636398E-3,-1.995086670E-2,3.431606293E-2
1.162497594E1,2.132266760E-2,-3.449463844E-2,3.424835205E-2
1.163503231E1,8.501589298E-3,-2.317857742E-2,3.644275665E-2
1.164508880E1,-2.126067877E-2,-2.192461491E-2,9.796142578E-3
1.165514527E1,-3.170722723E-2,-1.368308067E-2,-7.303237915E-3
1.166520155E1,-1.553112268E-2,1.666903496E-3,-1.960468292E-2
1.167529895E1,-1.595437527E-2,-1.537322998E-3,-7.832527161E-3
1.168539358E1,-2.354669571E-2,5.967617035E-4,-1.509857178E-2
1.169548581E1,-1.197433472E-2,2.888560295E-3,-1.515007019E-2
1.170557564E1,1.152998209E-2,1.451432705E-2,-1.046466827E-2
1.171566338E1,-1.536166668E-2,4.430055618E-3,1.572513580E-2
1.172574928E1,8.142650127E-3,-5.967855453E-3,3.228378296E-2
1.173583356E1,5.648732185E-3,-1.198005676E-2,3.296852112E-3
1.174591643E1,-1.391887665E-3,-6.017684937E-3,7.847785950E-3
1.175718496E1,-1.190543175E-3,1.429224014E-2,7.612228394E-3
1.176723996E1,-6.085336208E-3,8.449792862E-3,3.133201599E-2
1.177729296E1,6.546378136E-4,3.157758713E-2,4.789161682E-2
1.178734696E1,-1.906645298E-2,1.406240463E-2,5.009078979E-2
1.179739996E1,-5.867481232E-4,3.724575043E-3,5.227851868E-2
1.180745321E1,-1.180469990E-3,3.646492958E-2,5.447101593E-2
1.181750581E1,-1.692473888E-3,1.153159142E-2,4.944229126E-2
1.182755781E1,1.688945293E-2,2.231132984E-2,3.479290009E-2
1.183760866E1,2.581077814E-2,1.166415215E-2,3.452777863E-2
1.184765966E1,1.311576366E-2,3.704106808E-2,-8.816719055E-3
1.185771088E1,5.476891994E-3,1.236379147E-2,-3.054904938E-2
1.186776228E1,-1.618874073E-2,-9.632110596E-5,-7.135772705E-2
1.187781383E1,-8.919715881E-3,4.275918007E-3,-3.073406219E-2
1.188786566E1,1.228255033E-2,-1.277589798E-2,5.058288574E-2
1.189791782E1,2.121454477E-2,-8.444309235E-3,1.055097580E-1
1.190797003E1,3.809094429E-2,2.725362778E-3,9.817409515E-2
1.191806390E1,3.026068211E-3,3.693580627E-3,1.218919754E-1
1.192815515E1,-2.863389254E-2,5.939769745E-2,1.633358002E-2
1.193824397E1,-1.235598326E-2,5.514454842E-2,-1.920099258E-1
1.194833086E1,-4.596471786E-2,-4.837155342E-2,-4.343700409E-2
1.195841591E1,-2.794486284E-2,-6.453466415E-2,-1.526546478E-2
1.196849916E1,-5.141204596E-2,-1.054012775E-2,-2.080144882E-1
1.197858082E1,-4.182797670E-2,2.485513687E-2,-3.211927414E-1
1.198866119E1,-4.161572456E-2,2.133440971E-2,-1.484241486E-1
1.199877693E1,-4.837036133E-2,1.064288616E-2,8.488368988E-2
1.200888993E1,2.574837208E-2,2.249479294E-3,3.350753784E-1
1.201900157E1,7.534730434E-2,-6.733655930E-3,3.811168671E-1
1.202911084E1,7.193958759E-2,3.780603409E-3,2.466716766E-1
1.203921806E1,1.891392469E-2,-1.420211792E-2,1.568489075E-1
1.204932327E1,-7.236123085E-3,3.665447235E-3,2.348041534E-2
1.205942672E1,-2.161353827E-2,2.023172379E-2,-5.221557617E-2
1.206952842E1,6.266355515E-3,8.063542843E-2,-4.354763031E-2
1.207962985E1,2.663373947E-3,1.641466618E-1,-5.805969238E-2
1.208973125E1,2.422821522E-2,2.388283014E-1,-7.185554504E-2
1.209983278E1,3.494888544E-2,2.046313286E-1,-8.699417114E-3
1.210993429E1,2.167850733E-2,1.243195534E-1,3.517436981E-2
1.212003582E1,-1.342731714E-2,1.791477203E-3,4.281234741E-2
1.213013755E1,-2.721011639E-2,-5.962455273E-2,9.505271912E-3
1.214023955E1,-2.442526817E-2,-1.435664892E-1,-3.359031677E-2
1.215034158E1,-1.950240135E-2,-1.870489120E-1,-5.760002136E-2
1.216046348E1,-4.141336679E-2,-1.921548843E-1,-8.402729034E-2
1.217058532E1,-2.804642916E-2,-1.322004795E-1,-7.929325104E-2
1.218070722E1,-2.969866991E-2,-8.119726181E-2,4.522609711E-2
1.219082925E1,-4.104655981E-2,-3.018832207E-2,1.003065109E-1
1.220095132E1,-3.716069460E-2,3.262162209E-2,2.852439880E-2
1.221107342E1,-5.354517698E-2,8.791255951E-2,-3.843975067E-2
1.222117485E1,-2.882218361E-2,8.580327034E-2,-2.395820618E-2
1.223127642E1,2.113342285E-3,8.861398697E-2,2.878284454E-2
1.224270596E1,2.072262764E-2,7.001304626E-2,2.167129517E-2
1.225275696E1,4.956614971E-2,4.875063896E-2,7.371902466E-3
1.226281296E1,6.372457743E-2,3.206157684E-2,5.764770508E-2
1.227286846E1,4.634320736E-2,4.147100449E-2,1.078472137E-1
1.228292479E1,1.915639639E-2,5.774712563E-2,1.005029678E-1
1.229298179E1,-1.040303707E-2,7.392859459E-2,8.835411072E-2
1.230303779E1,-3.540933132E-3,7.589209080E-2,6.909084320E-2
1.231309329E1,-1.777261496E-2,7.343816757E-2,4.754066467E-2
1.232314815E1,-2.698153257E-2,6.911313534E-2,5.723762512E-2
1.233320290E1,-2.156519890E-2,5.323362350E-2,2.154827118E-2
1.234325756E1,-3.029662371E-2,-7.287263870E-4,7.468223572E-3
1.235331216E1,-1.045590639E-2,-1.367986202E-2,1.019763947E-2
1.236336625E1,-4.120820761E-2,-2.639150620E-2,2.252960205E-2
1.237342000E1,-2.671551704E-2,-4.653513432E-2,-3.515243530E-3
1.238347354E1,-1.701545715E-2,-4.017865658E-2,-1.037216187E-2
1.239352682E1,-1.439684629E-2,-3.612506390E-2,-4.434585571E-4
1.240362076E1,-2.354729176E-2,-3.934645653E-2,3.102874756E-2
1.241371207E1,-3.893077374E-3,-1.618099213E-2,2.181625366E-2
1.242380113E1,-1.289564371E-2,-1.015603542E-2,1.971530914E-2
1.243388807E1,-2.789914608E-3,-2.095580101E-3,3.669261932E-2
1.244397318E1,2.145195007E-2,-4.062414169E-3,4.398441315E-2
1.245405678E1,3.157645464E-2,1.996719837E-2,1.770591736E-2
1.246413892E1,2.967417240E-2,2.724671364E-2,-1.336097717E-2
1.247421978E1,1.360338926E-2,2.729129791E-2,-1.329421997E-3
1.248433456E1,-7.522225380E-3,3.489780426E-2,5.970954895E-3
1.249444681E1,2.266347408E-3,1.901459694E-2,3.968334198E-2
1.250455769E1,-2.155554295E-2,2.726614475E-2,5.666828156E-2
1.251466638E1,-4.453241825E-3,2.829933167E-2,6.408596039E-2
1.252477316E1,-1.486957073E-3,3.384590149E-2,6.428337097E-2
1.253487820E1,1.599365473E-2,3.167426586E-2,6.438255310E-2
1.254498168E1,-7.322192192E-3,9.954094887E-3,7.876014709E-2
1.255508371E1,2.880513668E-3,3.346943855E-2,8.350944519E-2
1.256518558E1,-5.826056004E-3,1.121473312E-2,5.949020386E-2
1.257528751E1,9.477138519E-6,8.045911789E-3,1.631641388E-2
1.258538941E1,-1.337182522E-2,2.659702301E-2,-4.597949982E-2
1.259549121E1,-2.705222368E-2,2.326130867E-3,-6.035900116E-2
1.260559298E1,-3.638529778E-2,7.143378258E-3,-6.991195679E-2
1.261569474E1,-2.406191826E-2,-9.372949600E-3,-7.586479187E-3
1.262579661E1,-2.138274908E-2,1.250040531E-2,7.629776001E-2
1.263589844E1,3.338515759E-3,-8.659839630E-3,1.315031052E-1
1.264601744E1,8.041858673E-3,-3.298997879E-2,1.244173050E-1
1.265613661E1,-5.463957787E-4,-2.237343788E-2,1.459503174E-1
1.266625601E1,-4.981136322E-2,1.380431652E-2,1.146574020E-1
1.267637557E1,-3.007000685E-2,7.640957832E-2,-2.588329315E-1
1.268649527E1,-4.828077555E-2,4.232883453E-3,-3.447542191E-1
1.269661517E1,-5.483144522E-2,-2.774190903E-2,-1.105375290E-1
1.270671487E1,-3.639191389E-2,-1.101255417E-3,-1.450996399E-1
1.271681477E1,-2.919310331E-2,-2.471172810E-2,-2.962408066E-1
1.272817696E1,-1.008635759E-2,-3.298819065E-2,-7.063102722E-2
1.273823096E1,-1.050209999E-2,-7.836782932E-2,1.984767914E-1
1.274828696E1,3.729099035E-2,-8.958089352E-2,4.864110947E-1
1.275834246E1,7.791751623E-2,-9.121417999E-3,4.668760300E-1
1.276839912E1,5.928426981E-2,4.930174351E-2,1.997175217E-1
1.277845537E1,2.378666401E-2,1.255993843E-1,2.777099609E-2
1.278851117E1,-6.097018719E-3,1.776318550E-1,-5.318546295E-2
1.279856634E1,-2.692353725E-2,1.987032890E-1,-3.550243378E-2
1.280862105E1,-2.181577682E-2,2.314332724E-1,-4.807949066E-2
1.281867568E1,9.973943233E-3,2.163914442E-1,-1.123313904E-1
1.282872990E1,2.183526754E-2,1.574184895E-1,-1.182098389E-1
1.283878390E1,1.370924711E-2,4.786741734E-2,-3.974437714E-2
1.284883763E1,-3.508460522E-2,-5.695199966E-2,6.266021729E-2
1.285889138E1,-3.897553682E-2,-1.630159616E-1,1.025276184E-1
1.286894522E1,-4.369843006E-2,-2.042808533E-1,8.442020416E-2
1.287899908E1,-5.412721634E-2,-2.217354774E-1,3.460693359E-2
1.288909434E1,-5.061835051E-2,-2.031680346E-1,-5.640220642E-2
1.289918703E1,-2.642726898E-2,-1.766051054E-1,-6.879138947E-2
1.290927744E1,-1.030266285E-2,-1.113811731E-1,-9.793853760E-2
1.291936578E1,1.672494411E-2,-2.861940861E-2,-2.513885498E-3
1.292945220E1,-2.150166035E-2,1.172447205E-2,5.708503723E-2
1.293953710E1,-4.523992538E-2,6.436538696E-2,-2.947807312E-3
1.294962048E1,-2.486687899E-2,1.083873510E-1,-5.313205719E-2
1.295970238E1,-5.387479067E-2,1.197742224E-1,-6.475925446E-2
1.296981895E1,-1.142615080E-2,1.243665218E-1,2.421855927E-2
1.297993303E1,3.253698349E-2,8.554685116E-2,9.630584717E-2
1.299004475E1,7.626855373E-2,6.483435631E-2,5.803012848E-2
1.300015421E1,6.784260273E-2,5.509996414E-2,4.353523254E-2
1.301026162E1,6.427651644E-2,4.685997963E-2,6.238365173E-2
1.302036712E1,4.133945704E-2,5.257630348E-2,1.002864838E-1
1.303047098E1,8.748829365E-3,3.680503368E-2,6.397628784E-2
1.304057328E1,-4.099547863E-3,4.813659191E-2,1.589488983E-2
1.305067542E1,-3.029990196E-2,1.505970955E-2,4.023551941E-3
1.306077742E1,-2.932929993E-2,-1.233732700E-2,2.352142334E-2
1.307087922E1,-4.951465130E-2,-4.163515568E-2,2.878475189E-2
1.308098092E1,-4.310941696E-2,-6.177020073E-2,5.074501038E-2
1.309108238E1,-1.572388411E-2,-7.097876072E-2,3.174781799E-2
1.310118388E1,-2.949774265E-2,-5.708110332E-2,2.451515198E-2
1.311128545E1,-1.942282915E-2,-2.932763100E-2,-1.977920532E-3
1.312138705E1,-2.392101288E-2,-1.357364655E-2,2.346038818E-4
1.313150611E1,-4.509896040E-2,-9.387254715E-3,-1.661682129E-2
1.314162518E1,-2.322787046E-2,-7.067799568E-3,-3.097248077E-2
1.315174428E1,-1.197934151E-3,1.505315304E-2,-9.270668030E-3
1.316186348E1,4.064619541E-3,-2.233850956E-2,2.923011780E-3
1.317198261E1,7.320702076E-3,4.746913910E-3,3.666114807E-2
1.318210178E1,-1.552772522E-2,4.886388779E-3,2.959156036E-2
1.319220018E1,2.149081230E-2,2.598738670E-2,3.916549683E-2
1.320229861E1,-1.430869102E-3,2.740001678E-2,5.580615997E-2
1.321361496E1,-2.831518650E-3,3.091251850E-2,3.168487549E-2
1.322366596E1,3.060102463E-4,6.075274944E-2,2.190780640E-2
1.323372196E1,8.043766022E-3,3.326666355E-2,7.353782654E-3
1.324377696E1,-5.807220936E-3,3.269016743E-2,-1.905822754E-2
1.325383329E1,1.892685890E-3,2.580654621E-2,-1.656246185E-2
1.326389029E1,-3.039836884E-5,-1.946091652E-3,-3.308773041E-2
1.327394769E1,-1.913571358E-2,-1.948714256E-2,-2.318096161E-2
1.328400485E1,-2.624905109E-2,-1.813149452E-2,5.828857422E-3
1.329406171E1,-3.983294964E-2,-3.163242340E-2,3.958415985E-2
1.330411896E1,-1.931291819E-2,-3.644490242E-2,1.330623627E-1
1.331417685E1,-1.472103596E-2,-3.037106991E-2,1.282243729E-1
1.332423465E1,1.668125391E-2,-2.530336380E-2,1.208276749E-1
1.333429219E1,1.195919514E-2,-6.255865097E-3,9.657764435E-2
1.334434961E1,-2.830803394E-2,4.436457157E-2,5.808353424E-2
1.335440692E1,-3.591346741E-2,8.441138268E-2,-2.912492752E-1
1.336446442E1,-3.817081451E-3,4.427826405E-2,-5.538330078E-1
1.337456202E1,-2.468490601E-2,-7.522320747E-2,-1.030349731E-1
1.338465720E1,-5.330681801E-3,-1.210825443E-1,2.054214478E-3
1.339475020E1,6.976366043E-3,-1.086701155E-1,-1.301002502E-1
1.340484109E1,5.346179008E-3,-1.037057638E-1,-1.996994019E-2
1.341493009E1,-3.901249170E-2,-9.594392776E-2,2.772169113E-1
1.342501749E1,-3.270685673E-3,-7.343018055E-2,5.238075256E-1
1.343510354E1,4.075139761E-2,8.122253418E-2,3.911371231E-1
1.344518822E1,4.800456762E-2,2.168745995E-1,3.739261627E-2
1.345530709E1,9.787201881E-3,2.661178112E-1,-1.418981552E-1
1.346542338E1,-3.031831980E-2,2.531330585E-1,-1.003885269E-1
1.347553738E1,-5.110883713E-2,2.134308815E-1,-8.432102203E-2
1.348564923E1,-2.522575855E-2,1.698048115E-1,-9.337329865E-2
1.349575919E1,1.373815536E-2,1.001684666E-1,-9.892177582E-2
1.350586722E1,1.943612099E-2,2.537250519E-3,-4.156684875E-2
1.351597343E1,1.963621378E-2,-9.912383556E-2,3.983688354E-2
1.352607800E1,-1.700520515E-2,-1.734294891E-1,1.304788589E-1
1.353618256E1,-4.207372665E-2,-2.244973183E-1,1.366682053E-1
1.354628726E1,-5.808609724E-2,-2.219384909E-1,5.345249176E-2
1.355639186E1,-7.728141546E-2,-2.065619230E-1,-4.293441772E-3
1.356649649E1,-5.853724480E-2,-1.361876726E-1,-8.411693573E-2
1.357660119E1,3.012359142E-3,-8.550071716E-2,-1.137943268E-1
1.358670593E1,6.487131119E-3,-3.659498692E-2,-1.577587128E-1
1.359681073E1,3.322529793E-2,3.314089775E-2,-9.609413147E-2
1.360691536E1,2.205312252E-3,8.316218853E-2,1.619720459E-2
1.361703739E1,-3.088176250E-3,1.207280159E-1,3.305721283E-2
1.362715936E1,-2.452719212E-2,1.337774992E-1,2.400016785E-2
1.363728122E1,-3.751021624E-2,1.047813892E-1,1.286506653E-2
1.364740306E1,-1.138603687E-2,8.015990257E-2,9.029769897E-2
1.365752489E1,2.708119154E-2,3.969860077E-2,1.100006104E-1
1.366764649E1,4.375439882E-2,4.424214363E-3,5.505847931E-2
1.367774802E1,4.054683447E-2,2.769017220E-2,4.576683044E-3
1.368784962E1,1.041924953E-2,2.154529095E-2,1.855373383E-2
1.369797839E1,-3.369867802E-3,5.162823200E-2,3.974533081E-2
1.370810722E1,-9.988725185E-3,4.483926296E-2,1.372337341E-3
1.371823612E1,-8.678734303E-3,5.600845814E-2,-2.951431274E-2
1.372836516E1,-2.075958252E-2,2.743649483E-2,1.648712158E-2
1.373849406E1,1.027882099E-3,-1.056432724E-3,5.295658112E-2
1.374862299E1,-1.143753529E-3,-6.361711025E-2,7.494831085E-2
1.375872492E1,-8.008241653E-3,-6.964719296E-2,7.520961761E-2
1.376882682E1,-1.051104069E-2,-3.131604195E-2,4.647541046E-2
1.377892846E1,-2.502018213E-2,-4.399836063E-2,1.998138428E-2
1.378902999E1,-1.074326038E-2,-1.370370388E-2,-2.807903290E-2
1.379913135E1,-1.337230206E-2,-2.372670174E-2,-1.861286163E-2
1.380923272E1,-1.383173466E-2,-3.316414356E-2,7.717132568E-3
1.381933419E1,-2.298533916E-3,-3.485023975E-2,2.937412262E-2
1.382943565E1,-7.159948349E-3,-1.240956783E-2,6.785774231E-2
1.383953812E1,4.801571369E-3,-4.400849342E-3,8.239173889E-2
1.384964058E1,-4.377007484E-3,4.377651215E-2,3.699398041E-2
1.385975995E1,5.731165409E-3,4.575240612E-2,1.036643982E-3
1.386987928E1,-3.105998039E-3,5.689239502E-2,2.247428894E-2
1.387999858E1,4.476308823E-3,4.627084732E-2,2.468585968E-2
1.389011798E1,-1.723170280E-4,5.970454216E-2,2.929401398E-2
1.390023745E1,-3.520250320E-4,3.547000885E-2,7.673263550E-3
1.391035698E1,-4.309415817E-4,3.102648258E-2,-3.775215149E-2
1.392045898E1,-1.674509048E-2,3.200805187E-2,-6.624698639E-2
1.393056115E1,-3.281426430E-2,2.633643150E-2,1.073074341E-2
1.394192496E1,-8.555829525E-3,-1.042330265E-2,7.571697235E-2
1.395198396E1,-3.650903702E-3,-2.861464024E-2,1.429615021E-1
1.396204096E1,2.549129725E-2,-3.367650509E-2,1.932153702E-1
1.397209946E1,-2.488732338E-3,-8.825778961E-3,1.618471146E-1
1.398215712E1,-3.199708462E-2,3.652119637E-2,1.183614731E-1
1.399221537E1,-7.074570656E-2,5.337965488E-2,-3.738307953E-2
1.400227417E1,-2.766168118E-2,6.174051762E-2,-4.751911163E-1
1.401233300E1,7.521450520E-3,-2.727615833E-2,-4.001407623E-1
1.402239200E1,1.865231991E-2,-1.088889837E-1,-2.616405487E-2
1.403245113E1,2.573448420E-2,-1.060254574E-1,-5.280876160E-2
1.404251024E1,3.633379936E-3,-1.211614609E-1,-1.678380966E-1
1.405256954E1,-8.420944214E-3,-1.392837763E-1,1.532878876E-1
1.406262863E1,-2.763438225E-2,-9.787821770E-2,4.647750854E-1
1.407268763E1,-4.726886749E-3,-2.462863922E-3,5.075225830E-1
1.408274625E1,4.622310400E-2,1.593488455E-1,1.518592834E-1
1.409280467E1,4.895251989E-2,2.472585440E-1,-1.255369186E-1
1.410289761E1,1.173090935E-2,2.401174307E-1,-1.542034149E-1
1.411298842E1,-2.589529753E-2,2.129704952E-1,-1.318168640E-1
1.412307718E1,-1.962918043E-2,1.960633993E-1,-1.106615067E-1
1.413316429E1,-4.242658615E-4,1.707344055E-1,-1.313276291E-1
1.414324987E1,3.387421370E-2,1.064341068E-1,-4.336071014E-2
1.415333412E1,7.601678371E-3,-1.583349705E-2,7.606029510E-2
1.416341741E1,-2.208453417E-2,-1.265580654E-1,1.665925980E-1
1.417349963E1,-2.600365877E-2,-1.869735718E-1,1.608343124E-1
1.418361572E1,-4.902094603E-2,-2.054994106E-1,1.471633911E-1
1.419372943E1,-6.058192253E-2,-2.016450167E-1,6.560230255E-2
1.420384083E1,-4.355669022E-2,-1.506052017E-1,-3.814983368E-2
1.421395006E1,-2.618968487E-3,-1.103433371E-1,-9.187126160E-2
1.422405728E1,2.060455084E-2,-5.969810486E-2,-1.167736053E-1
1.423416260E1,9.001612663E-3,-9.448170662E-3,-1.437673569E-1
1.424426619E1,-5.804300308E-4,5.246162415E-2,-5.784034729E-2
1.425436822E1,-2.179741859E-2,1.086992025E-1,1.884365082E-2
1.426447022E1,-2.381515503E-2,1.157034636E-1,-9.598731995E-3
1.427457218E1,-2.249425650E-2,1.092041731E-1,-4.736709595E-2
1.428467408E1,-2.709859610E-2,9.086668491E-2,7.061958313E-2
1.429477595E1,-4.455447197E-4,3.317058086E-2,1.429119110E-1
1.430487772E1,5.986279249E-2,-2.706646919E-3,1.022539139E-1
1.431497932E1,6.491684914E-2,3.452742100E-2,8.683204651E-3
1.432508072E1,3.318214417E-2,3.282928467E-2,2.744102478E-2
1.433518212E1,-1.754522324E-3,6.743955612E-2,6.536674500E-2
1.434530425E1,-1.992827654E-2,9.559333324E-2,-1.147937775E-2
1.435542632E1,-2.039945126E-2,7.933998108E-2,-4.972076416E-2
1.436554842E1,-3.164047003E-2,6.175124645E-2,-1.821804047E-2
1.437567052E1,-4.739111662E-2,4.237532616E-3,2.064800262E-2
1.438579278E1,-3.936010599E-2,-3.375351429E-2,8.830928802E-2
1.439591508E1,-1.936143637E-2,-9.114634991E-2,7.930469513E-2
1.440602015E1,7.655024529E-3,-9.186089039E-2,5.576229095E-2
1.441612528E1,-1.358824968E-2,-6.722187996E-2,2.001762390E-2
1.442754496E1,-3.263282776E-2,-5.558633804E-2,-5.665683746E-2
1.443759896E1,-1.807850599E-2,-4.685497284E-2,-6.878566742E-2
1.444765196E1,1.227617264E-3,-3.790974617E-2,-4.975032806E-2
1.445770596E1,-1.293331385E-2,-4.503846169E-3,-9.055137634E-3
1.446775996E1,-1.721286774E-2,3.049254417E-3,4.134082794E-2
1.447781470E1,1.181799173E-2,2.551686764E-2,3.437137604E-2
1.448786990E1,2.984523773E-3,1.722848415E-2,1.554203033E-2
1.449792557E1,1.533746719E-3,3.738009930E-2,-1.769447327E-2
1.450798043E1,1.455712318E-2,4.251492023E-2,-1.753711700E-2
1.451803530E1,-8.991420269E-3,3.019714355E-2,6.364822388E-3
1.452809008E1,1.017987728E-2,1.496899128E-2,2.294921875E-2
1.453814488E1,1.229363680E-2,1.885008812E-2,2.513408661E-2
1.454819970E1,-9.506165981E-3,3.794550896E-3,-3.758430481E-3
1.455825470E1,-5.099356174E-3,1.572155952E-2,-3.731727600E-2
1.456830985E1,-3.097832203E-3,3.337240219E-2,-7.547378540E-2
1.457836535E1,-3.426253796E-3,3.257453442E-2,-7.517242432E-2
1.458845568E1,1.537030935E-2,2.290523052E-2,9.067535400E-3
1.459854406E1,2.906960249E-2,-1.302015781E-2,8.133029938E-2
1.460863076E1,3.788024187E-2,-2.310395241E-2,1.486940384E-1
1.461871610E1,-7.978141308E-3,-3.433620930E-2,1.943073273E-1
1.462880015E1,-2.455991507E-2,-1.822566986E-2,1.582746506E-1
1.463888330E1,-7.334542274E-2,2.809286118E-2,1.077947617E-1
1.464896568E1,-8.133053780E-2,2.879559994E-2,-1.795330048E-1
1.465904736E1,-2.089619637E-2,-1.091802120E-2,-4.497280121E-1
1.466916232E1,2.475380898E-3,-7.739436626E-2,-2.073440552E-1
1.467927515E1,3.737455606E-2,-5.221235752E-2,-4.357337952E-3
1.468938591E1,6.511569023E-3,-3.286874294E-2,-2.084016800E-1
1.469949476E1,-3.121376038E-2,-6.688475609E-2,-1.772327423E-1
1.470960176E1,-3.705382347E-2,-7.859826088E-2,2.920970917E-1
1.471970711E1,-2.316808701E-2,-5.886805058E-2,5.359954834E-1
1.472981094E1,3.199106455E-2,4.978752136E-2,3.698129654E-1
1.473991331E1,6.060421467E-2,1.658107042E-1,2.090644836E-2
1.475001584E1,5.196475983E-2,2.098742723E-1,-1.009712219E-1
1.476011857E1,-5.242586136E-3,2.233099937E-1,-1.246299744E-1
1.477022150E1,-2.229964733E-2,2.234296799E-1,-1.260786057E-1
1.478032454E1,-3.850811720E-2,1.668373346E-1,-1.263418198E-1
1.479042774E1,-1.507556438E-2,9.918153286E-2,-9.901237488E-2
1.480053097E1,-1.972502470E-2,-5.067229271E-3,-1.364707947E-3
1.481063444E1,-2.062940598E-2,-1.122802496E-1,1.181259155E-1
1.482073797E1,-3.455525637E-2,-1.893129349E-1,1.559448242E-1
1.483085977E1,-2.751469612E-2,-2.310959101E-1,1.308488846E-1
1.484098167E1,-4.962521791E-2,-2.246388197E-1,9.283828735E-2
1.485110374E1,-2.610313892E-2,-1.721342802E-1,1.087474823E-2
1.486122594E1,-2.796351910E-3,-1.199557781E-1,-7.645130157E-2
1.487134824E1,5.453705788E-3,-4.908835888E-2,-1.184358597E-1
1.488147064E1,2.228128910E-2,3.734946251E-3,-1.243581772E-1
1.489157577E1,2.566874027E-3,8.260393143E-2,-7.004547119E-2
1.490168083E1,-2.650755644E-2,1.272467375E-1,6.363677979E-2
1.491312396E1,-1.812636852E-3,1.425532103E-1,6.369590759E-2
1.492318096E1,2.383410931E-3,1.653895378E-1,-2.467536926E-2
1.493323696E1,1.714706421E-2,1.358472109E-1,-1.713848114E-2
1.494329246E1,9.880781174E-3,7.209074497E-2,1.171112061E-1
1.495334879E1,2.556508780E-2,1.185083389E-2,1.001863480E-1
1.496340629E1,3.947365284E-2,9.168386459E-4,2.565383911E-2
1.497346389E1,3.474789858E-2,6.294965744E-3,-5.833625793E-3
1.498352189E1,5.017876625E-3,2.244353294E-3,5.599975586E-2
1.499357975E1,-1.594722271E-2,-1.111328602E-2,8.430290222E-2
1.500363800E1,-4.863053560E-2,3.113245964E-2,3.612232208E-2
1.501369644E1,-3.962129354E-2,3.328645229E-2,-7.066726685E-3
1.502375504E1,-4.665267467E-2,3.371369839E-2,-2.372741699E-2
1.503381377E1,-4.396545887E-2,-2.045536041E-2,-4.367828369E-3
1.504387252E1,-2.213394642E-2,-4.790437222E-2,3.422164917E-2
1.505393121E1,-7.423043251E-3,-3.715467453E-2,6.321811676E-2
1.506398992E1,-2.600193024E-3,-4.624938965E-2,5.853080750E-2
1.507409019E1,-2.952742577E-2,-4.157447815E-2,2.972984314E-2
1.508418806E1,-9.044647217E-3,-1.842939854E-2,1.990604401E-2
1.509428359E1,-1.198601723E-2,-2.203190327E-2,-4.323959351E-3
1.510437726E1,-1.733452082E-2,1.046228409E-2,-2.373027802E-2
1.511446931E1,-1.065933704E-2,2.692937851E-4,-2.629089355E-2
1.512455971E1,1.201212406E-3,2.159690857E-2,-1.916122437E-2
1.513464857E1,5.997776985E-3,4.804730415E-2,9.593963623E-3
1.514473593E1,3.658831120E-3,6.969475746E-2,3.595352173E-2
1.515485758E1,1.255869865E-3,3.351128101E-2,5.026340485E-2
1.516497650E1,3.677666187E-3,3.277480602E-2,3.575134277E-2
1.517509306E1,1.423597336E-3,2.449858189E-2,1.878166199E-2
1.518520744E1,2.054345608E-2,3.762531281E-2,6.556510925E-3
1.519531974E1,-1.563978195E-2,1.971209049E-2,2.306079865E-2
1.520543010E1,-2.299559116E-2,9.363174438E-3,2.289104462E-2
1.521553878E1,3.285169601E-3,1.368713379E-2,3.715801239E-2
1.522564578E1,-2.316600084E-2,-1.307618618E-2,2.748584747E-2
1.523575285E1,-2.823501825E-2,-3.904938698E-3,2.498626709E-2
1.524586015E1,-4.618108273E-3,5.081534386E-3,-1.494407654E-3
1.525596752E1,-2.892804146E-2,1.923918724E-3,-4.237937927E-2
1.526607482E1,-7.857382298E-3,-1.264095306E-3,-4.018306732E-2
1.527618215E1,-1.538127661E-2,1.050221920E-2,-6.898117065E-2
1.528628958E1,-2.753800154E-2,-3.360867500E-3,-4.974079132E-2
1.529639715E1,-1.376712322E-2,-6.596803665E-3,1.277351379E-2
1.530650471E1,9.468674660E-3,-3.141307831E-2,1.279478073E-1
1.531662965E1,1.577907801E-2,-4.531800747E-2,1.854324341E-1
1.532675465E1,-6.230711937E-3,-4.705190659E-4,1.900548935E-1
1.533687968E1,-2.468168736E-2,3.125143051E-2,1.418628693E-1
1.534700465E1,-5.210852623E-2,6.246531010E-2,-6.751060486E-3
1.535712971E1,-9.265124798E-3,5.741202831E-2,-2.772808075E-1
1.536725485E1,-4.488289356E-3,-1.084494591E-2,-1.862592697E-1
1.537735938E1,-4.473924637E-4,-1.956498623E-2,-2.171516418E-2
1.538746384E1,1.844090223E-2,-3.082752228E-4,-2.310724258E-1
1.539759531E1,-5.434155464E-4,4.716515541E-3,-4.085655212E-1
1.540772678E1,-1.629763842E-2,-3.024756908E-2,-2.991199493E-2
1.541785811E1,-1.449108124E-2,-6.634044647E-2,3.680257797E-1
1.542798951E1,3.379994631E-2,-3.254377842E-2,5.166606903E-1
1.543812111E1,8.519494534E-2,3.731656075E-2,3.124694824E-1
1.544825294E1,6.232935190E-2,8.298373222E-2,1.050567627E-1
1.545835784E1,7.619261742E-4,1.230397224E-1,-2.861690521E-2
1.546846298E1,-1.102960110E-2,1.415330172E-1,-7.612895966E-2
1.547856808E1,-2.130597830E-2,1.844983101E-1,-1.039695740E-1
1.548867324E1,-1.705121994E-2,1.796675920E-1,-1.164636612E-1
1.549877854E1,-4.399037361E-2,1.654866934E-1,-7.942867279E-2
1.550888404E1,-5.336725712E-2,7.949674129E-2,-1.145362854E-3
1.551898941E1,-5.594879389E-2,-6.131482124E-2,7.716178894E-2
1.552909474E1,-2.598500252E-2,-1.436938047E-1,1.359596252E-1
1.553920141E1,-4.497253895E-2,-2.047489882E-1,1.199340820E-1
1.554930801E1,-2.396935225E-2,-1.921765804E-1,6.254959106E-2
1.555943281E1,-2.210706472E-2,-1.681119204E-1,2.197265625E-3
1.556955754E1,1.555502415E-2,-9.042370319E-2,-8.239364624E-2
1.557968230E1,1.397651434E-2,-4.653286934E-2,-8.571052551E-2
1.558980700E1,1.874136925E-2,2.982735634E-3,-8.174133301E-2
1.559993164E1,-3.159838915E-2,7.299125195E-2,3.262710571E-2
1.561005600E1,-5.245530605E-2,8.866083622E-2,8.255577087E-2
1.562016424E1,-4.629158974E-2,1.218224764E-1,-2.054405212E-2
1.563027240E1,-3.660470247E-2,1.630419493E-1,-1.090183258E-1
1.564172996E1,-1.175093651E-2,1.165019274E-1,-3.924846649E-2
1.565178796E1,2.199655771E-2,7.982563972E-2,7.362270355E-2
1.566186896E1,1.884686947E-2,4.995763302E-2,9.536075592E-2
1.567193896E1,1.828157902E-2,2.882432938E-2,9.208679199E-3
1.568200596E1,2.533733845E-2,1.385200024E-2,4.020309448E-2
1.569207246E1,4.846870899E-3,8.158802986E-3,8.061981201E-2
1.570213906E1,-2.107888460E-2,1.664137840E-2,9.700775146E-2
1.571220506E1,-2.975636721E-2,6.122827530E-3,4.642772675E-2
1.572227006E1,-2.794408798E-2,5.689978600E-3,-1.116466522E-2
1.573233493E1,-4.729646444E-2,5.824208260E-3,-1.833534241E-2
1.574239937E1,-2.817434072E-2,-7.766246796E-3,9.698867798E-4
1.575246307E1,-6.315886974E-3,-1.150751114E-2,1.317310333E-2
1.576252662E1,-5.930125713E-3,-4.656839371E-2,4.449748993E-2
1.577258962E1,-1.297050714E-2,-2.934360504E-2,2.065944672E-2
1.578265216E1,8.406817913E-3,4.106998444E-3,1.344871521E-2
1.579271444E1,-1.584160328E-2,1.565456390E-2,2.052497864E-2
1.580281811E1,7.575988770E-3,8.013486862E-3,1.320934296E-2
1.581291917E1,6.925821304E-3,2.688264847E-2,-1.261711121E-3
1.582301805E1,-5.341708660E-3,2.233183384E-2,-1.237869263E-3
1.583311483E1,1.144611835E-2,1.080632210E-2,-1.311779022E-2
1.584320972E1,9.110569954E-3,1.866841316E-2,1.096439362E-2
1.585330292E1,6.903290749E-3,2.398526669E-2,3.023815155E-2
1.586339459E1,1.643687487E-2,2.419519424E-2,3.506565094E-2
1.587348482E1,6.912410259E-3,2.627372742E-4,3.946304321E-3
1.588360925E1,-9.522557259E-3,7.273435593E-3,-8.516311646E-4
1.589373092E1,-7.104575634E-3,2.635765076E-2,3.504943848E-2
1.590385008E1,-4.895806313E-3,9.682416916E-3,3.265857697E-2
1.591396692E1,-2.912771702E-2,2.426159382E-2,3.028488159E-2
1.592408166E1,-3.419482708E-2,2.767205238E-3,3.985023499E-2
1.593419445E1,-2.264744043E-2,1.475119591E-2,6.136798859E-2
1.594430552E1,-1.824831963E-2,7.202744484E-3,4.450607300E-2
1.595441502E1,-1.135581732E-2,6.672501564E-3,3.001308441E-2
1.596452382E1,2.677965164E-2,-6.176590919E-3,1.785278320E-2
1.597463275E1,2.807378769E-4,7.049322128E-3,5.642890930E-3
1.598474168E1,2.683639526E-3,1.311326027E-2,5.421638489E-3
1.599485048E1,9.845376015E-3,1.947808266E-2,1.004505157E-2
1.600495901E1,-2.099215984E-3,2.603435516E-2,3.461837769E-4
1.601506748E1,-1.868093014E-2,1.843249798E-2,-6.907463074E-3
1.602517605E1,-3.997582197E-2,3.039681911E-2,-2.100944519E-3
1.603528451E1,-3.010386229E-2,1.385748386E-2,7.541656494E-3
1.604541038E1,-1.535415649E-2,-2.647042274E-3,2.198791504E-2
1.605553641E1,-1.247823238E-2,-4.815340042E-3,1.728153229E-2
1.606566244E1,-1.442432404E-4,7.337450981E-3,3.410530090E-2
1.607578854E1,4.990994930E-3,-2.188205719E-3,1.977729797E-2
1.608591474E1,5.276978016E-3,1.697933674E-2,1.740741730E-2
1.609604111E1,7.691740990E-3,3.479719162E-4,1.264572144E-2
1.610614681E1,-1.636916399E-2,2.201807499E-2,-1.704216003E-3
1.611625244E1,-2.611482143E-2,5.356669426E-3,1.506233215E-2
1.612638464E1,-3.088164330E-2,5.457639694E-3,2.226638794E-2
1.613651684E1,2.809941769E-3,-4.362344742E-3,2.701854706E-2
1.614664891E1,-2.001106739E-3,-5.006790161E-5,1.734638214E-2
1.615678098E1,-1.873552799E-2,1.603198051E-2,2.439594269E-2
1.616691298E1,-1.632070541E-2,-6.412982941E-3,3.858470917E-2
1.617704491E1,-9.104490280E-3,2.613508701E-2,5.515289307E-2
1.618714964E1,-4.480063915E-3,3.017961979E-2,3.583908081E-2
1.619725451E1,2.002716064E-4,3.933048248E-2,2.138137817E-2
1.620735927E1,2.421158552E-2,4.174566269E-2,2.139091492E-2
1.621746401E1,7.708668709E-3,2.297866344E-2,-1.203155518E-2
1.622756847E1,-2.075374126E-2,4.728317261E-3,-3.098487854E-2
1.623767281E1,-8.846580982E-3,-1.081919670E-2,-4.032516479E-2
1.624777691E1,-3.353637457E-2,-2.300977707E-3,1.494979858E-2
1.625788070E1,-2.219575644E-2,-1.311933994E-2,9.174537659E-2
1.626798437E1,-2.404153347E-2,-4.628145695E-2,1.062231064E-1
1.627808790E1,-1.291239262E-2,-1.337051392E-2,1.038265228E-1
1.628820794E1,2.402192354E-2,2.096748352E-2,9.880352020E-2
1.629832790E1,9.704589844E-3,3.601884842E-2,5.537223816E-2
1.630844787E1,-4.854673147E-2,9.257888794E-2,-3.566265106E-2
1.631856787E1,-7.998526096E-3,9.249293804E-2,-3.465652466E-1
1.632868770E1,-3.754562140E-2,-3.462684155E-2,-1.615724564E-1
1.633880740E1,-1.117300987E-2,-7.857668400E-2,3.477478027E-2
1.634890947E1,1.442402601E-2,-6.166791916E-2,-1.380138397E-1
1.635901130E1,1.099705696E-2,3.242146969E-2,-2.216472626E-1
1.636914007E1,-2.998310328E-2,-2.205896378E-2,-6.276702881E-2
1.637926877E1,-6.871461868E-3,-5.714368820E-2,2.399597168E-1
1.638939740E1,2.257573605E-2,-4.695355892E-2,4.583044052E-1
1.639952590E1,3.448891640E-2,6.722807884E-3,3.309440613E-1
1.640965430E1,1.633167267E-2,3.671395779E-2,1.141748428E-1
1.641978273E1,-5.052846670E-2,5.416798592E-2,4.059410095E-2
1.642988450E1,-6.959557533E-2,6.931364536E-2,-1.620864868E-2
1.643998636E1,-2.277183533E-2,1.131807566E-1,-1.276683807E-2
1.645008840E1,-2.787888050E-3,1.464300156E-1,-3.016948700E-2
1.646019056E1,-1.800590754E-2,1.789782047E-1,-8.406639099E-3
1.647029266E1,1.088458300E-2,1.808958054E-1,1.639652252E-2
1.648039493E1,4.148721695E-3,1.167402267E-1,2.705001831E-2
1.649049730E1,2.026855946E-3,3.967535496E-2,2.553558350E-2
1.650059966E1,2.316117287E-3,-4.592943192E-2,6.995201111E-3
1.651070230E1,-4.730403423E-3,-8.335804939E-2,7.181167603E-3
1.652080513E1,-1.198053360E-4,-1.238735914E-1,-3.349685669E-2
1.653092583E1,-5.032896996E-3,-1.479120255E-1,-4.549694061E-2
1.654104686E1,-9.988307953E-3,-1.500936747E-1,-4.067897797E-2
1.655116806E1,1.374894381E-2,-1.017284393E-1,-4.778099060E-2
1.656128949E1,-2.107483149E-2,-6.275689602E-2,4.083538055E-2
1.657141123E1,-2.798449993E-2,-3.127706051E-2,1.341190338E-1
1.658153299E1,-7.549476624E-2,1.872551441E-2,9.081554413E-2
1.659163836E1,-7.395172119E-2,5.857515335E-2,-2.673625946E-2
1.660174386E1,-7.382917404E-2,7.715201378E-2,-6.993675232E-2
1.661304796E1,-8.735120296E-3,9.122598171E-2,-4.123020172E-2
1.662311096E1,1.049005985E-2,5.552637577E-2,1.627922058E-2
1.663317396E1,3.160035610E-2,5.113589764E-2,2.350711823E-2
1.664323696E1,4.283207655E-2,3.229498863E-2,2.590751648E-2
1.665329929E1,2.757805586E-2,3.966462612E-2,7.615566254E-2
1.666336179E1,7.167220116E-3,5.644845963E-2,1.047964096E-1
1.667342419E1,1.018410921E-2,6.349432468E-2,9.505844116E-2
1.668348619E1,-1.527827978E-2,6.321346760E-2,7.812786102E-2
1.669354719E1,-3.510332108E-2,6.051087379E-2,7.322788239E-2
1.670360781E1,-4.250627756E-2,1.215922832E-2,4.438781738E-2
1.671366859E1,-4.214596748E-2,-2.137422562E-4,2.997016907E-2
1.672372919E1,-4.179549217E-2,-1.259768009E-2,5.972862244E-3
1.673378928E1,-1.808744669E-2,-2.488839626E-2,2.025604248E-2
1.674384945E1,1.306533813E-4,-3.468954563E-2,1.056480408E-2
1.675390929E1,-1.766037941E-2,-3.200173378E-2,8.152008057E-3
1.676396908E1,-4.239380360E-3,2.394318581E-3,3.467559814E-3
1.677407041E1,-1.704114676E-2,-1.543974876E-2,1.272201538E-3
1.678416897E1,-2.239757776E-2,-1.641285419E-2,-1.045799255E-2
1.679426515E1,-5.803048611E-3,6.452441216E-3,-3.026008606E-3
1.680435909E1,-2.981299162E-2,-1.411724091E-2,3.547096252E-2
1.681445104E1,3.401041031E-3,-1.612234116E-2,6.665039062E-2
1.682454134E1,7.657527924E-3,6.420612335E-4,4.506397247E-2
1.683463029E1,1.432096958E-2,7.356286049E-3,2.338409424E-2
1.684471797E1,-4.745244980E-3,2.347242832E-2,2.326297760E-2
1.685483867E1,2.849757671E-3,1.813876629E-2,1.636505127E-3
1.686495700E1,1.282501221E-2,4.884910583E-2,2.313137054E-2
1.687507308E1,-4.081130028E-3,1.771664619E-2,3.987789154E-2
1.688518685E1,-2.128785849E-2,4.187309742E-2,4.946422577E-2
1.689529855E1,-2.087175846E-3,3.477644920E-2,3.272628784E-2
1.690540834E1,-8.922636509E-3,2.993667126E-2,3.513526917E-2
1.691551640E1,-1.482665539E-3,1.764500141E-2,3.509140015E-2
1.692562290E1,8.202195168E-3,1.717138290E-2,4.218769073E-2
1.693572920E1,-6.066501141E-3,1.422238350E-2,2.772045135E-2
1.694583537E1,-1.793515682E-2,1.359760761E-2,3.717994690E-2
1.695594137E1,-8.738636971E-4,8.380889893E-3,2.993488312E-2
1.696604724E1,-1.244109869E-2,-6.369113922E-3,2.749443054E-2
1.697615310E1,-1.679956913E-2,-1.129674911E-2,2.270984650E-2
1.698625910E1,-1.163774729E-2,3.079056740E-3,4.668235779E-2
1.699636530E1,-1.608282328E-2,9.188652039E-4,1.562976837E-2
1.700647150E1,-2.067232132E-2,1.809799671E-2,1.362800598E-3
1.701659567E1,-2.040565014E-2,-2.987861633E-3,-2.725601196E-2
1.702671977E1,-3.785264492E-2,4.617810249E-3,-3.919315338E-2
1.703684407E1,-2.240967751E-2,1.441943645E-2,-1.530551910E-2
1.704696827E1,-1.408213377E-2,-4.603266716E-3,6.124114990E-2
1.705709244E1,4.579603672E-3,1.442003250E-2,1.018800735E-1
1.706721644E1,2.169233561E-2,1.399850845E-2,8.985137939E-2
1.707731957E1,3.209316730E-2,1.791238785E-2,2.509593964E-2
1.708742260E1,1.128458977E-2,4.576373100E-2,6.567764282E-2
1.709755280E1,4.836797714E-3,5.229687691E-2,-3.255844116E-2
1.710768297E1,-2.648466825E-2,2.078378201E-2,-9.693431854E-2
1.711781307E1,-5.963104963E-2,-5.724978447E-2,7.334423065E-2
1.712794300E1,-2.579057217E-2,-6.905758381E-2,2.504253387E-2
1.713807267E1,-2.290213108E-2,5.603313446E-3,-2.605810165E-1
1.714820203E1,-1.988339424E-2,3.032147884E-2,-2.751064301E-1
1.715830490E1,-5.958873034E-2,1.970911026E-2,-5.916881561E-2
1.716840736E1,-2.594006062E-2,-1.388549805E-3,1.164789200E-1
1.717850950E1,3.911674023E-2,-3.510093689E-2,2.872362137E-1
1.718861146E1,6.113636494E-2,-2.348935604E-2,3.138351440E-1
1.719871323E1,5.464851856E-2,-2.526593208E-2,2.223749161E-1
1.720881496E1,1.503866911E-2,-3.756403923E-2,1.374626160E-1
1.721891663E1,-2.196830511E-2,-2.027773857E-2,4.029178619E-2
1.722901816E1,-1.473605633E-3,2.777576447E-4,-8.813858032E-3
1.723911976E1,-1.200121641E-2,7.099568844E-2,-1.915264130E-2
1.724922133E1,2.024096251E-2,1.498271227E-1,-1.277923584E-4
1.725934099E1,1.230508089E-2,2.027027607E-1,-2.065658569E-3
1.726946066E1,2.776920795E-3,1.968963146E-1,3.459739685E-2
1.727958026E1,5.895972252E-3,1.379638910E-1,6.164264679E-2
1.728969969E1,4.473090172E-3,5.849945545E-2,4.294490814E-2
1.729981906E1,-2.558487654E-2,-2.516067028E-2,2.629184723E-2
1.730993842E1,-6.532061100E-2,-1.113610268E-1,-1.433944702E-2
1.732003966E1,-6.926983595E-2,-1.418116093E-1,-3.569126129E-2
1.733014086E1,-6.881314516E-2,-1.547981501E-1,-1.622962952E-2
1.734144096E1,-6.882905960E-2,-1.335564852E-1,8.126258850E-3
1.735149996E1,-5.737096071E-2,-7.603657246E-2,6.181716919E-3
1.736155696E1,-6.576865911E-2,-3.784513474E-2,9.513187408E-2
1.737161346E1,-5.746299028E-2,4.034686089E-2,1.264772415E-1
1.738167179E1,-1.515549421E-2,7.921147346E-2,2.357959747E-2
1.739172979E1,-1.976954937E-2,1.156169176E-1,-4.334640503E-2
1.740178839E1,2.590358257E-3,9.024596214E-2,-3.112316132E-2
1.741184789E1,1.713526249E-2,5.343377590E-2,5.538082123E-2
1.742190703E1,5.272310972E-2,3.362238407E-2,4.133892059E-2
1.743196578E1,8.635932207E-2,5.678033829E-2,5.603599548E-2
1.744202500E1,7.222616673E-2,4.600751400E-2,6.108093262E-2
1.745208420E1,3.875774145E-2,4.641389847E-2,8.989715576E-2
1.746216238E1,1.438438892E-2,5.110394955E-2,1.257581711E-1
1.747223888E1,-1.758110523E-2,5.055487156E-2,1.279802322E-1
1.748231604E1,3.208756447E-3,4.017126560E-2,8.466625214E-2
1.749239154E1,-6.404995918E-3,3.712594509E-2,5.101490021E-2
1.750251527E1,-2.502119541E-2,1.561033726E-2,5.345630646E-2
1.751263489E1,-2.670598030E-2,1.782178879E-3,5.122089386E-2
1.752275113E1,-3.085339069E-2,-4.065179825E-2,5.379486084E-2
1.753286418E1,-1.578509808E-3,5.464553833E-4,2.999305725E-2
1.754297413E1,-3.226649761E-2,-1.586520672E-2,2.291202545E-2
1.755308133E1,-4.381763935E-2,-3.529548645E-3,-5.713462830E-3
1.756318609E1,-1.678341627E-2,-7.774591446E-3,1.629829407E-3
1.757328868E1,-3.740072250E-2,-7.283687592E-5,1.377391815E-2
1.758342525E1,-1.715594530E-2,-1.870119572E-2,3.311252594E-2
1.759355858E1,-2.793198824E-2,-1.113748550E-2,3.088378906E-2
1.760368890E1,-2.192276716E-2,-2.072334290E-2,4.294395447E-2
1.761381644E1,-1.125794649E-2,-2.611851692E-2,5.966281891E-2
1.762394125E1,-3.046929836E-3,-3.932988644E-2,4.512500763E-2
1.763406368E1,-8.848965168E-3,-7.404327393E-3,2.814865112E-2
1.764418385E1,-2.411240339E-2,3.170490265E-2,2.075958252E-2
1.765430195E1,-1.078236103E-2,2.062904835E-2,3.492641449E-2
1.766441995E1,-2.162355185E-2,6.256723404E-2,6.590366364E-2
1.767453795E1,-1.582789421E-2,3.288805485E-2,7.057857513E-2
1.768465569E1,-1.941829920E-2,3.947138786E-2,5.139541626E-2
1.769477342E1,7.965087891E-3,6.779694557E-2,4.660415649E-2
1.770489098E1,-5.219876766E-3,3.168284893E-2,2.989482880E-2
1.771500822E1,1.499038935E-2,1.737654209E-2,5.153465271E-2
1.772512542E1,3.766506910E-2,1.057565212E-2,1.418113708E-3
1.773524265E1,2.632421255E-2,-2.935218811E-2,-3.429317474E-2
1.774537788E1,-9.611129761E-3,-6.856799126E-3,-1.734542847E-2
1.775551292E1,-1.156634092E-2,-3.002893925E-2,3.072547913E-2
1.776564085E1,-2.713632584E-2,-3.196406364E-2,7.879257202E-2
1.777576872E1,-1.981383562E-2,-2.258419991E-2,1.100702286E-1
1.778589562E1,2.754926682E-3,-3.086256981E-2,1.196880341E-1
1.779602262E1,7.832169533E-3,-2.074468136E-2,8.600616455E-2
1.780612485E1,-2.454704046E-2,2.742290497E-2,3.778839111E-2
1.781622695E1,-5.643385649E-2,4.756140709E-2,3.763294220E-2
1.782635575E1,-5.297988653E-2,5.706357956E-2,-2.422370911E-1
1.783648451E1,-6.714808941E-2,7.532835007E-3,-2.391166687E-1
1.784661331E1,-4.211384058E-2,-7.857418060E-2,2.970218658E-2
1.785674208E1,2.301657200E-2,-9.166586399E-2,-7.103919983E-2
1.786687088E1,1.948595047E-3,-8.261609077E-2,-1.792240143E-1
1.787699971E1,-3.264605999E-2,-9.238052368E-2,-8.328819275E-2
1.788710081E1,-2.903401852E-2,-9.473550320E-2,1.517372131E-1
1.789720178E1,-4.944026470E-3,-8.439481258E-2,3.959217072E-1
1.790730258E1,6.595921516E-2,3.517115116E-2,3.376960754E-1
1.791740331E1,8.596074581E-2,1.245381832E-1,1.184272766E-1
1.792750418E1,1.940345764E-2,1.684563160E-1,-2.213668823E-2
1.793760498E1,-6.150782108E-3,1.720294952E-1,-2.186775208E-3
1.794770571E1,-3.200173378E-2,1.782084703E-1,4.698848724E-2
1.795780644E1,-2.553820610E-3,1.716881990E-1,2.036857605E-2
1.796790728E1,-3.242480755E-2,1.475944519E-1,-6.418228149E-4
1.797800804E1,-1.810520887E-2,7.609689236E-2,-5.212402344E-2
1.798812974E1,-2.200144529E-2,1.057744026E-2,-1.231384277E-2
1.799825134E1,7.932543755E-3,-7.225668430E-2,7.051181793E-2
1.800837288E1,-8.324623108E-3,-1.446793079E-1,1.026992798E-1
1.801849438E1,-1.133716106E-2,-1.543817520E-1,6.737804413E-2
1.802861571E1,-1.498246193E-2,-1.709418297E-1,1.004791260E-2
1.803873704E1,-6.902140379E-2,-1.724218130E-1,-3.326034546E-2
1.804884018E1,-2.262902260E-2,-1.457062960E-1,-5.753135681E-2
1.805894338E1,-1.062530279E-2,-1.164712906E-1,-1.959705353E-2
1.806907404E1,5.310773849E-3,-6.514286995E-2,-3.668785095E-2
1.807920474E1,2.074307203E-2,-9.220838547E-4,1.818847656E-2
1.808933544E1,-1.418972015E-2,4.189538956E-2,8.984661102E-2
1.809946611E1,-5.441200733E-2,8.494675159E-2,5.137920380E-2
1.810959671E1,-5.844151974E-2,1.261752844E-1,-3.723049164E-2
1.811972741E1,-2.511489391E-2,1.323140860E-1,-6.810283661E-2
1.812983127E1,1.154166460E-2,8.387231827E-2,2.090644836E-2
1.813993521E1,7.855129242E-2,3.744506836E-2,7.625961304E-2
1.815003907E1,7.559156418E-2,3.583264351E-2,5.721664429E-2
1.816014310E1,5.614089966E-2,2.370953560E-3,2.847480774E-2
1.817024717E1,1.955008507E-2,-1.010549068E-2,7.859992981E-2
1.818035130E1,-1.054036617E-2,2.992284298E-2,1.214532852E-1
1.819045567E1,-1.712286472E-2,5.541491508E-2,1.139621735E-1
1.820056017E1,-1.847594976E-2,3.325951099E-2,3.711986542E-2
1.821066490E1,-2.081775665E-2,1.890289783E-2,-3.575325012E-3
1.822076977E1,-3.221476078E-2,-9.164214134E-3,-5.793571472E-3
1.823089284E1,-1.698726416E-2,-4.381811619E-2,1.607322693E-2
1.824101597E1,-1.124310493E-2,-5.409359932E-2,4.761028290E-2
1.825113927E1,1.335501671E-3,-5.765151978E-2,5.987453461E-2
1.826126280E1,-2.236241102E-2,-3.044950962E-2,4.570198059E-2
1.827138653E1,-2.671617270E-2,-1.578962803E-2,-4.484176636E-3
1.828151063E1,-1.433861256E-2,-3.932595253E-3,-2.080917358E-3
1.829161390E1,-9.499549866E-3,2.981781960E-3,-2.130508423E-3
1.830171730E1,-1.630747318E-2,3.053903580E-3,-9.269714355E-3
1.831184757E1,-2.264559269E-2,-1.538157463E-3,-1.155662537E-2
1.832197793E1,7.209062576E-3,-5.949139595E-3,1.255035400E-2
1.833210853E1,-6.008803844E-3,6.160497665E-3,2.703380585E-2
1.834223926E1,-9.519279003E-3,-1.327478886E-2,7.925033569E-3
1.835237010E1,-3.679156303E-3,1.498401165E-2,2.946186066E-2
1.836250106E1,-1.735430956E-2,7.180333138E-3,2.699851990E-2
1.837260483E1,-3.158009052E-2,2.565503120E-2,4.842185974E-2
1.838270870E1,-2.670508623E-2,1.787340641E-2,4.830932617E-2
1.839281253E1,-1.213848591E-2,3.647875786E-2,2.188110352E-2
1.840291636E1,-1.899349689E-2,4.104864597E-2,-6.866455078E-3
1.841302033E1,1.257175207E-2,1.968574524E-2,1.235866547E-2
1.842312449E1,1.076936722E-3,-1.795005798E-2,-9.017944336E-3
1.843322863E1,-1.561903954E-2,-1.662063599E-2,5.616188049E-3
1.844333266E1,-1.362228394E-2,-7.944226265E-3,5.883216858E-3
1.845343676E1,-1.132339239E-2,-6.416022778E-2,1.091194153E-2
1.846354076E1,-1.786375046E-2,-2.987563610E-2,6.378841400E-2
1.847366153E1,-4.477024078E-3,-2.036166191E-2,9.501457214E-2
1.848378213E1,2.145707607E-2,-1.907634735E-2,9.016418457E-2
1.849390266E1,4.424118996E-2,7.387161255E-3,6.586933136E-2
1.850402316E1,-3.542542458E-3,3.887748718E-2,5.110836029E-2
1.851414366E1,-4.575258493E-2,3.327047825E-2,8.213996887E-2
1.852426406E1,-7.102292776E-2,6.494867802E-2,-1.688613892E-1
1.853436622E1,-2.511399984E-2,4.983162880E-2,-3.786077499E-1
1.854446829E1,-2.640533447E-2,-5.683815479E-2,-2.097892761E-2
1.855459706E1,9.688317776E-3,-1.145989895E-1,3.404331207E-2
1.856472569E1,5.236279964E-2,-9.576773643E-2,-1.244668961E-1
1.857485556E1,-1.437187195E-3,-1.040569544E-1,-7.680892944E-2
1.858498532E1,-1.279872656E-2,-1.136732101E-1,1.124639511E-1
1.859511512E1,-1.600420475E-2,-8.369052410E-2,3.710289001E-1
1.860524506E1,4.234319925E-2,5.584204197E-2,3.488235474E-1
1.861534832E1,6.880056858E-2,1.793099642E-1,3.384113312E-2
1.862545175E1,5.916368961E-2,2.186369896E-1,-1.258783340E-1
1.863555509E1,1.364231110E-2,2.461038828E-1,-8.924293518E-2
1.864565832E1,-2.990657091E-2,1.880152225E-1,-6.161403656E-2
1.865576159E1,-3.423798084E-2,1.416374445E-1,-6.893539429E-2
1.866586505E1,-8.444190025E-3,8.861315250E-2,-4.397201538E-2
1.867596849E1,-1.801264286E-2,3.584742546E-3,1.772117615E-2
1.868607198E1,8.068919182E-3,-7.296836376E-2,1.323347092E-1
1.869617562E1,-2.932244539E-2,-1.497129202E-1,2.176094055E-1
1.870627928E1,-4.312974215E-2,-2.015998363E-1,1.637029648E-1
1.871640038E1,-6.249225140E-2,-1.992272139E-1,7.030773163E-2
1.872652138E1,-6.754106283E-2,-1.706281900E-1,9.925842285E-3
1.873664248E1,-7.696765661E-2,-1.216281652E-1,-6.501674652E-2
1.874676368E1,-2.499163151E-3,-8.648884296E-2,-9.435749054E-2
1.875688502E1,1.826065779E-2,-4.731583595E-2,-4.444694519E-2
1.876700648E1,9.450793266E-3,3.001332283E-3,-1.344680786E-2
1.877711125E1,2.472937107E-2,7.833588123E-2,-4.686164856E-2
1.878721615E1,-2.745211124E-3,9.890401363E-2,2.754974365E-2
1.879734835E1,-2.844154835E-2,1.431430578E-1,2.284812927E-2
1.880748055E1,-3.301608562E-2,1.178232431E-1,-1.543045044E-2
1.881761278E1,-3.169000149E-2,8.535003662E-2,-2.009487152E-2
1.882774508E1,-1.709443331E-2,3.166091442E-2,7.117843628E-2
1.883787742E1,2.628213167E-2,-3.877282143E-2,1.121797562E-1
1.884800988E1,5.027341843E-2,-3.300869465E-2,3.576469421E-2
1.885811578E1,4.319131374E-2,-3.242111206E-2,1.673698425E-2
1.886822168E1,1.867020130E-2,1.104843616E-2,5.507278442E-2
1.887832621E1,-1.396512985E-2,1.511573792E-3,1.052389145E-1
1.888843075E1,-1.646029949E-2,3.983640671E-2,7.391929626E-2
1.889853545E1,-8.427321911E-3,5.255794525E-2,-2.717971802E-4
1.890864021E1,-1.583772898E-2,2.282595634E-2,-1.677131653E-2
1.891874515E1,-1.819312572E-2,-3.017890453E-2,-1.989364624E-3
1.892885021E1,-8.374691010E-3,-7.332909107E-2,4.399013519E-2
1.893895555E1,-1.512187719E-2,-9.036397934E-2,8.515167236E-2
1.894906108E1,1.123601198E-2,-6.729066372E-2,6.870079041E-2
1.895918351E1,-3.595530987E-3,-5.180394650E-2,4.734230042E-2
1.896930581E1,-6.634294987E-3,-1.777970791E-2,1.626777649E-2
1.897942821E1,-7.112264633E-3,-6.483793259E-4,-5.242347717E-3
1.898955068E1,-1.450014114E-2,2.085804939E-3,-5.190849304E-3
1.899967321E1,-1.449388266E-2,-2.170801163E-3,-2.937316895E-4
1.900979598E1,-1.190829277E-2,3.507256508E-3,2.144908905E-2
1.901990151E1,-9.099245071E-3,1.652801037E-2,2.648162842E-2
1.903000711E1,-1.086080074E-2,4.151391983E-2,2.195358276E-2
1.904130196E1,-1.248484850E-2,5.674159527E-2,1.740074158E-2
1.905136196E1,2.536714077E-3,5.975747108E-2,3.673171997E-2
1.906142796E1,-1.641309261E-2,2.899372578E-2,4.639816284E-2
1.907149296E1,2.714991570E-3,4.121577740E-2,5.841732025E-2
1.908155862E1,-2.825397253E-2,1.983034611E-2,3.930854797E-2
1.909162312E1,-3.522360325E-2,-3.767848015E-3,1.305961609E-2
1.910168692E1,-1.827824116E-2,-1.492929459E-2,-1.549243927E-2
1.911175025E1,-1.350641251E-3,-1.581192017E-3,-1.520061493E-2
1.912181368E1,-2.286118269E-2,-2.366364002E-2,-1.003265381E-2
1.913187731E1,-1.359987259E-2,-2.851414680E-2,2.153968811E-2
1.914194131E1,-3.544878960E-2,-2.145600319E-2,3.394794464E-2
1.915200551E1,-2.354741096E-2,-3.376400471E-2,3.196525574E-2
1.916207005E1,-1.345705986E-2,-3.938329220E-2,7.781505585E-2
1.917213472E1,8.758485317E-3,-1.708149910E-2,1.139335632E-1
1.918219918E1,1.420778036E-2,-1.981997490E-2,6.842708588E-2
1.919226375E1,3.277599812E-3,-1.609480381E-2,7.068634033E-2
1.920236802E1,-2.429538965E-2,9.051322937E-3,9.926795959E-2
1.921246989E1,-6.055378914E-2,4.443395138E-2,3.707408905E-2
1.922256954E1,-4.927641153E-2,3.556621075E-2,-2.593336105E-1
1.923266726E1,-4.524976015E-2,-1.810419559E-2,-2.655220032E-1
1.924276310E1,-5.652129650E-3,-7.023346424E-2,3.432273865E-3
1.925285735E1,4.917770624E-2,-7.314157486E-2,-5.654621124E-2
1.926295030E1,5.947273970E-2,-9.300506115E-2,-1.480045319E-1
1.927304185E1,1.521062851E-2,-9.519481659E-2,1.053380966E-1
1.928316768E1,-7.792294025E-3,-6.598603725E-2,3.706874847E-1
1.929329097E1,1.575690508E-2,4.640817642E-4,4.033765793E-1
1.930341293E1,6.505769491E-2,1.356493235E-1,1.003971100E-1
1.931353277E1,6.773477793E-2,1.922425032E-1,-1.382331848E-1
1.932365044E1,2.777910233E-2,1.916619539E-1,-1.301593781E-1
1.933376608E1,-2.152532339E-2,1.555114985E-1,-1.143302917E-1
1.934387991E1,-8.101224899E-3,1.189621687E-1,-6.885147095E-2
1.935399194E1,-1.098948717E-2,7.265281677E-2,-4.156589508E-2
1.936410371E1,-1.424252987E-3,4.874861240E-2,-2.555656433E-2
1.937421541E1,-1.634174585E-2,-6.044268608E-2,1.055183411E-1
1.938432691E1,-2.287304401E-2,-1.441347599E-1,1.669044495E-1
1.939443841E1,-1.298516989E-2,-1.776031256E-1,1.391830444E-1
1.940454981E1,-1.735079288E-2,-2.045773268E-1,7.972049713E-2
1.941466121E1,-3.819572926E-2,-2.011002302E-1,-1.865291595E-2
1.942477254E1,-3.270524740E-2,-1.420985460E-1,-1.006593704E-1
1.943488384E1,-6.556868553E-3,-1.097286940E-1,-1.492776871E-1
1.944501287E1,-1.006740332E-2,-4.537057877E-2,-9.963417053E-2
1.945514160E1,-2.864974737E-2,1.795661449E-2,-1.146316528E-2
1.946527017E1,-1.394230127E-2,8.742368221E-2,-1.880455017E-2
1.947539860E1,-8.509874344E-3,1.341418028E-1,-1.869678497E-2
1.948552700E1,-1.233905554E-2,1.096194983E-1,6.295776367E-2
1.949565527E1,5.116522312E-3,1.039601564E-1,6.552505493E-2
1.950576370E1,2.574062347E-2,4.077529907E-2,-1.326084137E-2
1.951587204E1,-2.904057503E-3,6.249666214E-3,3.491210938E-2
1.952719996E1,4.157304764E-3,-3.142237663E-2,1.379814148E-1
1.953725896E1,2.787441015E-2,-3.196275234E-2,3.729724884E-2
1.954734096E1,6.903308630E-2,-2.394199371E-3,-5.875015259E-2
1.955741146E1,2.849793434E-2,4.606330395E-2,1.750755310E-2
1.956747746E1,1.998293400E-2,5.642426014E-2,7.693004608E-2
1.957754271E1,-2.532297373E-2,7.691752911E-2,1.076631546E-1
1.958760690E1,-1.285111904E-2,7.197093964E-2,1.171207428E-2
1.959767057E1,-2.056568861E-2,5.862593651E-2,-2.882385254E-2
1.960773329E1,-5.088084936E-2,3.196835518E-3,5.171775818E-3
1.961779541E1,-2.567213774E-2,-4.937684536E-2,2.972030640E-2
1.962785663E1,1.836568117E-2,-9.955036640E-2,6.861114502E-2
1.963791743E1,4.421889782E-3,-1.335951090E-1,9.057235718E-2
1.964797770E1,6.420433521E-3,-8.261013031E-2,5.477237701E-2
1.965803762E1,-6.183981895E-3,-5.186545849E-2,1.154899597E-2
1.966809724E1,-1.639306545E-2,-3.141391277E-2,-1.745510101E-2
1.967815674E1,-7.255971432E-3,1.300728321E-2,-5.840969086E-2
1.968825740E1,-2.449834347E-2,-7.012248039E-3,-2.031707764E-2
1.969835521E1,-2.210485935E-2,4.092395306E-2,-1.312351227E-2
1.970845092E1,-3.243088722E-4,4.387998581E-2,2.052783966E-2
1.971854481E1,-1.188737154E-2,3.022325039E-2,1.591587067E-2
1.972863717E1,-4.277110100E-3,4.504990578E-2,8.861541748E-3
1.973872792E1,1.276087761E-2,3.553378582E-2,3.762626648E-2
1.974881730E1,2.938997746E-2,6.492018700E-3,4.234123230E-2
1.975890544E1,3.134483099E-2,-8.221149445E-3,2.547645569E-2
1.976902779E1,1.418811083E-2,2.752220631E-2,2.062129974E-2
1.977914766E1,-2.191579342E-2,-1.102328300E-3,3.259849548E-2
1.978926622E1,-2.194142342E-2,4.034042358E-3,4.224395752E-2
1.979938257E1,-2.654707432E-2,-5.354762077E-3,7.102775574E-2
1.980949672E1,2.230584621E-3,-7.691383362E-3,2.794742584E-2
1.981960889E1,6.792068481E-3,-7.838487625E-3,1.563072205E-3
1.982971938E1,6.286919117E-3,-2.951097488E-2,1.498222351E-3
1.983982821E1,-1.329904795E-2,-1.019287109E-2,-2.005195618E-2
1.984993618E1,-2.554786205E-2,-1.455616951E-2,-2.716922760E-2
1.986004421E1,-4.288315773E-3,-1.378941536E-2,-1.745891571E-2
1.987015221E1,-1.397740841E-2,-1.275575161E-2,3.541564941E-2
1.988025997E1,9.856104851E-3,-3.084480762E-2,9.068965912E-2
1.989036761E1,1.007533073E-2,-4.515600204E-2,1.314201355E-1
1.990047511E1,1.544660330E-2,-2.240693569E-2,9.530925751E-2
1.991058281E1,-9.789466858E-3,2.110517025E-2,7.105255127E-2
1.992069037E1,-5.889403820E-2,4.263639450E-2,1.089630127E-1
1.993081497E1,-4.902631044E-2,7.182538509E-2,-6.359863281E-2
1.994093951E1,-1.619446278E-2,4.613697529E-2,-2.597551346E-1
1.995106407E1,3.414750099E-4,-3.737735748E-2,-1.014060974E-1
1.996118884E1,6.000190973E-2,-5.688011646E-2,-2.277278900E-2
1.997131370E1,6.764143705E-2,-1.578593254E-2,-2.701349258E-1
1.998143864E1,2.957242727E-2,-4.924905300E-2,-3.064069748E-1
1.999154304E1,-5.019903183E-4,-7.078707218E-2,6.468582153E-2
2.000164770E1,-3.493952751E-2,-1.040898561E-1,3.951568604E-1
2.001177937E1,3.852844238E-2,-5.351972580E-2,4.572162628E-1
2.002191097E1,7.286590338E-2,3.593790531E-2,2.001171112E-1
2.003204247E1,4.396539927E-2,1.141511202E-1,-2.260208130E-4
2.004217400E1,1.284885406E-2,1.424254179E-1,-4.054927826E-2
2.005230547E1,-2.842396498E-2,1.452410221E-1,-9.270286560E-2
