"Time (s)","Linear Acceleration x (m/s^2)","Linear Acceleration y (m/s^2)","Linear Acceleration z (m/s^2)"
6.830130800E-2,2.024948597E-3,-1.591241360E-2,-4.596710205E-2
7.332068300E-2,2.795517445E-3,1.817297935E-2,-6.988239288E-2
7.834005800E-2,7.912993431E-3,2.268075943E-3,-5.356693268E-2
8.335943300E-2,-5.060791969E-3,8.891224861E-3,-5.869102478E-2
8.837880800E-2,5.286037922E-3,1.307010651E-2,-4.689884186E-2
9.339818300E-2,1.577496529E-3,1.723659039E-2,-3.820514679E-2
9.841755800E-2,-6.335198879E-3,-2.374172211E-3,-8.631706238E-3
1.034369330E-1,-2.586245537E-4,-1.293933392E-2,3.185176849E-2
1.084563080E-1,-8.159637451E-3,4.165410995E-3,6.128215790E-2
1.134756830E-1,-2.146148682E-2,-4.722476006E-3,8.488941193E-2
1.184950580E-1,-1.025229692E-2,6.023764610E-3,1.132993698E-1
1.235144330E-1,-1.324820518E-2,-5.552649498E-3,1.166353226E-1
1.285338080E-1,3.500342369E-3,3.801107407E-3,1.154136658E-1
1.335531830E-1,1.157701015E-2,-1.965439320E-2,1.500139236E-1
1.385725580E-1,1.944595575E-2,-1.940977573E-2,1.293783188E-1
1.435919330E-1,1.328295469E-2,-7.852554321E-3,1.315593719E-1
1.486113080E-1,-6.409525871E-3,-1.892447472E-2,1.257028580E-1
1.536306830E-1,4.622697830E-3,-4.320859909E-3,8.897972107E-2
1.586500580E-1,3.748118877E-3,-1.004159451E-2,7.206821442E-2
1.636694330E-1,6.421566010E-3,-9.863615036E-3,2.101135254E-2
1.686888080E-1,-4.910528660E-3,1.124751568E-2,-1.101589203E-2
1.737081830E-1,-1.710945368E-2,2.253913879E-2,-3.741931915E-2
1.787275580E-1,-1.854091883E-2,1.970374584E-2,-3.865337372E-2
1.837469330E-1,-2.929580212E-2,1.362979412E-2,-4.682731628E-2
1.887663080E-1,-5.972307920E-2,1.367342472E-2,-1.636791229E-2
1.937856830E-1,-5.459153652E-2,1.499235630E-2,2.377414703E-2
1.988050580E-1,-4.624295235E-2,1.978170872E-2,4.773426056E-2
2.038244330E-1,-3.084909916E-2,2.445852757E-2,3.959178925E-2
2.088438080E-1,-3.386586905E-2,2.541661263E-2,-1.393032074E-2
2.138631830E-1,2.111196518E-4,9.664773941E-3,-5.929946899E-2
2.188825580E-1,-1.766848564E-2,9.535551071E-4,-5.346870422E-2
2.239019330E-1,-5.633902550E-2,-8.049368858E-3,-4.086875916E-2
2.289213080E-1,-6.997060776E-2,-4.397034645E-3,-9.900093079E-3
2.339406830E-1,-5.457031727E-2,-1.741981506E-2,2.827644348E-3
2.389623490E-1,-3.424465656E-3,-6.613135338E-3,9.469985962E-3
2.439798490E-1,2.656257153E-2,-2.263450623E-2,9.028434753E-3
2.489973490E-1,2.383112907E-2,-2.975940704E-2,-1.121044159E-2
2.540149540E-1,4.518628120E-4,-2.210795879E-2,-2.733802795E-2
2.590327660E-1,-1.861256361E-2,-1.061058044E-2,-6.761264801E-2
2.640507870E-1,-2.042299509E-2,-1.068329811E-2,-8.702754974E-2
2.690690160E-1,-9.581446648E-3,-2.463412285E-2,-6.846046448E-2
2.740875580E-1,1.866769791E-2,-1.605415344E-2,-3.853130341E-2
2.791065160E-1,2.903139591E-2,-2.001762390E-3,-1.014709473E-3
2.841258910E-1,3.957921267E-2,-6.138801575E-3,5.805587769E-2
2.891455790E-1,3.982579708E-2,5.715966225E-3,1.347532272E-1
2.941654740E-1,2.638292313E-2,1.096737385E-2,1.958942413E-1
2.991855790E-1,3.364264965E-2,3.458797932E-2,2.300424576E-1
3.042058910E-1,5.921006203E-3,4.215717316E-2,2.011966705E-1
3.092264120E-1,1.089870930E-2,5.526268482E-2,1.645584106E-1
3.142470370E-1,1.848429441E-2,5.646431446E-2,8.027076721E-2
3.192676620E-1,6.264209747E-3,3.432941437E-2,2.682113647E-2
3.242882870E-1,6.282031536E-3,3.290235996E-2,-5.636978149E-2
3.293089120E-1,-2.055644989E-3,1.545369625E-2,-1.087179184E-1
3.343295370E-1,-9.230971336E-3,2.076506615E-3,-1.118974686E-1
3.393496410E-1,1.143813133E-4,-2.529740334E-3,-1.008386612E-1
3.443691200E-1,-4.853069782E-3,-1.030695438E-2,-6.750202179E-2
3.493884950E-1,1.026177406E-2,3.339648247E-3,-2.521419525E-2
3.544078700E-1,1.100760698E-2,5.070209503E-3,2.472782135E-2
3.594272450E-1,7.070422173E-3,1.972293854E-2,3.973007202E-2
3.644466200E-1,-3.058910370E-4,1.759648323E-2,5.805492401E-2
3.694659950E-1,-4.172682762E-3,3.906452656E-2,5.725288391E-2
3.744853700E-1,-1.989072561E-2,3.415906429E-2,4.465484619E-2
3.795047450E-1,-1.668024063E-2,4.103541374E-2,2.869129181E-2
3.845241200E-1,-1.822263002E-2,3.482484818E-2,2.120971680E-2
3.895434950E-1,-1.271110773E-2,4.526007175E-2,2.801418304E-2
3.945628700E-1,-1.550322771E-2,4.022765160E-2,3.591728210E-2
3.995822450E-1,-5.159556866E-3,3.640508652E-2,2.243518829E-2
4.046016200E-1,-1.628071070E-2,3.731012344E-2,9.123802185E-3
4.096209950E-1,-1.882606745E-2,1.576805115E-2,-1.669883728E-3
4.146403700E-1,-1.228392124E-3,1.465857029E-2,-2.059459686E-2
4.196597450E-1,4.357755184E-3,1.760244370E-3,-2.746486664E-2
4.246791200E-1,1.509666443E-3,-9.774327278E-3,-4.607105255E-2
4.296984950E-1,2.945810556E-2,-3.055572510E-2,-4.552078247E-2
4.347178700E-1,1.797699928E-2,-3.334653378E-2,-4.142856598E-2
4.397372450E-1,1.958340406E-2,-4.795384407E-2,-3.146934509E-2
4.447566200E-1,1.154816151E-2,-4.580485821E-2,-1.332473755E-2
4.497759950E-1,1.417070627E-2,-5.907046795E-2,4.621505737E-3
4.547953700E-1,1.676863432E-2,-5.562853813E-2,8.161544800E-3
4.598147450E-1,7.348954678E-3,-6.044888496E-2,1.169109344E-2
4.648341200E-1,-4.422128201E-3,-6.645810604E-2,9.262084961E-3
4.698534950E-1,-2.444386482E-2,-5.221080780E-2,9.251594543E-3
4.748728700E-1,-3.129845858E-2,-4.165434837E-2,1.280689240E-2
4.798922450E-1,-3.586906195E-2,-2.534484863E-2,8.039474487E-3
4.849116200E-1,-5.110245943E-2,-1.266586781E-2,2.466773987E-2
4.899309950E-1,-4.019486904E-2,-2.539038658E-3,2.809238434E-2
4.949503700E-1,-3.062981367E-2,-2.028226852E-3,2.081966400E-2
4.999697450E-1,-3.777408600E-2,3.123998642E-3,5.389404297E-2
5.049891200E-1,3.831088543E-3,1.888680458E-2,3.685855865E-2
5.100084950E-1,1.071053743E-2,2.493405342E-2,3.656864166E-2
5.150278700E-1,2.013790607E-2,1.899027824E-2,1.372623444E-2
5.200472450E-1,3.445309401E-2,1.311695576E-2,-3.499031067E-2
5.250666200E-1,3.566616774E-2,1.324069500E-2,-8.557319641E-3
5.300859950E-1,4.034894705E-2,4.172849655E-2,3.183937073E-2
5.351053700E-1,4.740333557E-2,3.446185589E-2,1.969528198E-2
5.401247450E-1,3.560268879E-2,4.175841808E-2,3.022956848E-2
5.451441200E-1,4.169237614E-2,2.068161964E-2,-3.179550171E-3
5.501634950E-1,3.567487001E-2,1.662087440E-2,-8.938789368E-3
5.551828700E-1,1.863425970E-2,-1.456141472E-3,-1.694583893E-2
5.602022450E-1,2.713739872E-3,-5.143761635E-3,-3.672504425E-2
5.652216200E-1,1.407974958E-2,9.020328522E-3,-5.749511719E-2
5.702409950E-1,1.832878590E-2,-6.779909134E-3,-1.406288147E-2
5.752603700E-1,4.403305054E-2,-3.612160683E-3,1.233100891E-2
5.802797450E-1,4.260826111E-2,1.742959023E-3,2.062606812E-2
5.852991200E-1,3.538066149E-2,1.146113873E-2,3.945446014E-2
5.903184950E-1,2.600222826E-2,2.329421043E-2,5.332756042E-2
5.953378700E-1,2.493441105E-3,2.643561363E-2,5.871963501E-2
6.003572450E-1,6.514012814E-3,2.827215195E-2,6.048870087E-2
6.053766200E-1,-2.545833588E-3,3.472769260E-2,3.610897064E-2
6.103959950E-1,-3.177046776E-3,2.916765213E-2,5.976676941E-3
6.154153700E-1,2.589046955E-2,3.081619740E-2,-1.558780670E-2
6.204347450E-1,4.787802696E-3,4.331088066E-2,-8.442878723E-3
6.254541200E-1,6.314456463E-3,3.082263470E-2,-1.914119720E-2
6.304734950E-1,-4.144787788E-3,3.522408009E-2,-2.140045166E-2
6.354928700E-1,8.162856102E-4,3.616869450E-2,-4.609107971E-3
6.405122450E-1,-1.096016169E-2,4.074323177E-2,-1.405334473E-2
6.455316200E-1,4.591464996E-3,2.045297623E-2,2.725601196E-3
6.505509950E-1,6.863474846E-3,1.832878590E-2,8.725166321E-3
6.555703700E-1,1.861113310E-2,1.978230476E-2,1.348781586E-2
6.605897450E-1,2.424597740E-2,1.784563065E-2,1.825428009E-2
6.656091200E-1,3.687566519E-2,1.008272171E-2,4.013061523E-3
6.706284950E-1,3.987520933E-2,1.655232906E-2,1.955699921E-2
6.756478700E-1,3.107708693E-2,-3.099322319E-3,1.004123688E-2
6.806672450E-1,2.595192194E-2,1.155376434E-3,5.348205566E-3
6.856866200E-1,3.276079893E-2,-1.125431061E-2,1.493740082E-2
6.907059950E-1,2.893602848E-2,7.275462151E-3,2.799224854E-2
6.957253700E-1,2.640384436E-2,-5.754232407E-4,3.734874725E-2
7.007447450E-1,5.017995834E-3,-7.279872894E-3,1.929187775E-2
7.057641200E-1,1.007997990E-2,-4.444241524E-3,2.154827118E-2
7.107834950E-1,1.164031029E-2,-1.474153996E-2,5.959510803E-3
7.158028700E-1,1.442360878E-2,-1.077854633E-2,1.778507233E-2
7.208222450E-1,1.709502935E-2,-5.654931068E-3,-1.341819763E-3
7.258416200E-1,6.688296795E-3,-7.619142532E-3,1.294422150E-2
7.308609950E-1,1.048147678E-2,-1.200747490E-2,1.523971558E-2
7.358803700E-1,1.308143139E-2,-1.157248020E-2,-1.571750641E-2
7.408997450E-1,2.269822359E-2,-1.103675365E-2,-1.552200317E-2
7.459191200E-1,4.855334759E-3,-9.356021881E-3,-5.832672119E-3
7.509384950E-1,2.157008648E-2,-7.615447044E-3,2.298355103E-4
7.559578700E-1,1.682579517E-2,-9.490251541E-3,-5.639076233E-3
7.609772450E-1,1.217448711E-2,6.484150887E-3,3.971099854E-3
7.659966200E-1,1.344943047E-2,-9.719133377E-3,1.588249207E-2
7.710159950E-1,1.348805428E-2,7.458209991E-3,2.651119232E-2
7.760353700E-1,1.584720612E-2,-1.676440239E-3,1.805305481E-2
7.810547450E-1,2.061146498E-2,1.418817043E-2,7.286071777E-3
7.860741200E-1,2.170109749E-2,1.449561119E-2,8.487701416E-3
7.910934950E-1,4.517179728E-2,1.824116707E-2,1.754760742E-4
7.961128700E-1,4.008084536E-2,1.725673676E-2,-6.883621216E-3
8.011322450E-1,4.345399141E-2,1.273667812E-2,-1.270294189E-2
8.061516200E-1,4.806256294E-2,1.292645931E-2,-4.252433777E-3
8.111709950E-1,3.253370523E-2,5.994677544E-3,5.607604980E-4
8.161903700E-1,3.260433674E-2,8.591771126E-3,-7.734298706E-3
8.212097450E-1,3.503841162E-2,7.581830025E-3,-8.840560913E-3
8.262291200E-1,2.446275949E-2,8.950710297E-3,-6.384849548E-3
8.312484950E-1,2.229547501E-2,6.771087646E-3,4.365921021E-3
8.362678700E-1,4.725635052E-3,-2.500891685E-3,-1.583766937E-2
8.412872450E-1,8.675754070E-3,9.668946266E-3,-1.569366455E-2
8.463066200E-1,1.734888554E-2,1.226961613E-2,8.197784424E-3
8.513259950E-1,3.417015076E-3,1.966571808E-2,3.409385681E-3
8.563453700E-1,5.069911480E-3,2.925240993E-2,5.756378174E-3
8.613647450E-1,7.656812668E-4,2.936661243E-2,2.170562744E-3
8.663841200E-1,3.922349215E-2,1.883506775E-2,-1.907348633E-4
8.714034950E-1,2.150732279E-2,2.017593384E-2,1.288890839E-2
8.764228700E-1,2.531510592E-2,4.642665386E-2,9.238243103E-3
8.814422450E-1,3.381627798E-2,2.623164654E-2,2.073287964E-3
8.864616200E-1,3.277480602E-2,2.766859531E-2,-2.689361572E-4
8.914809950E-1,3.164011240E-2,2.900433540E-2,-2.241134644E-4
8.965003700E-1,2.569317818E-2,4.820120335E-2,3.401756287E-3
9.015197450E-1,2.925491333E-2,1.381134987E-2,-3.685951233E-3
9.065391200E-1,2.082127333E-2,1.292574406E-2,2.015781403E-2
9.115584950E-1,6.537139416E-3,1.795232296E-2,-1.316070557E-3
9.165778700E-1,5.471169949E-3,2.889931202E-2,3.506660461E-3
9.215972450E-1,1.268815994E-2,2.792334557E-2,-3.571510315E-3
9.266166200E-1,3.222525120E-3,1.743793488E-2,9.155273438E-5
9.316359950E-1,1.283496618E-2,1.532065868E-2,1.083850861E-2
9.366553700E-1,1.053929329E-2,-5.872368813E-3,4.852294922E-3
9.416747450E-1,3.511786461E-3,1.700794697E-2,-1.087188721E-3
9.466941200E-1,1.201146841E-2,4.153013229E-3,-1.032829285E-3
9.517134950E-1,1.101195812E-2,1.041436195E-2,4.955291748E-3
9.567354740E-1,1.830816269E-2,-1.302719116E-3,4.936218262E-3
9.617570890E-1,1.850688457E-2,-1.998281479E-2,-1.015663147E-3
9.667766200E-1,2.469563484E-2,-5.322694778E-3,1.888275146E-4
9.717959950E-1,2.148830891E-2,-9.798049927E-3,2.552986145E-3
9.768153700E-1,4.080224037E-2,-4.756808281E-3,1.677036285E-2
9.818347450E-1,3.030759096E-2,3.729820251E-3,7.108688354E-3
9.868541200E-1,3.413093090E-2,-8.817911148E-4,4.657745361E-3
9.918734950E-1,2.480512857E-2,8.901119232E-3,-3.681182861E-3
9.968928700E-1,2.147740126E-2,4.304766655E-3,-7.208824158E-3
1.001912245E0,2.527469397E-2,1.868975163E-2,-4.779815674E-3
1.006931620E0,2.782523632E-2,9.287595749E-3,-1.168251038E-3
1.011950995E0,3.149569035E-2,3.476619720E-3,1.546764374E-2
1.016970370E0,3.751260042E-2,8.406043053E-3,1.178550720E-2
1.021989745E0,4.349178076E-2,1.092636585E-2,2.000522614E-2
1.027009120E0,2.806103230E-2,1.494884491E-3,4.594993591E-2
1.032028495E0,2.466833591E-2,9.936094284E-3,3.131103516E-2
1.037047870E0,1.900821924E-2,8.740901947E-3,3.339195251E-2
1.042067245E0,3.111052513E-2,2.528488636E-2,3.307628632E-2
1.047086620E0,3.113138676E-2,2.621650696E-2,1.377105713E-2
1.052105995E0,3.583717346E-2,2.204656601E-3,4.128456116E-3
1.057125370E0,2.618932724E-2,1.877152920E-2,-1.254558563E-2
1.062144745E0,1.766359806E-2,1.032531261E-2,-1.753807068E-3
1.067164120E0,2.572143078E-2,5.603671074E-3,-2.663612366E-2
1.072183495E0,3.730636835E-2,1.638305187E-2,-2.993965149E-2
1.077202870E0,3.560441732E-2,2.109026909E-2,-1.896953583E-2
1.082222245E0,4.465669394E-2,1.159179211E-2,-1.401519775E-2
1.087241620E0,3.343719244E-2,1.997804642E-2,-1.384925842E-2
1.092260995E0,4.723334312E-2,1.636850834E-2,-1.844120026E-2
1.097280370E0,4.671752453E-2,1.631093025E-2,-3.131866455E-2
1.102299745E0,3.922611475E-2,1.386201382E-2,-2.036380768E-2
1.107319120E0,3.550362587E-2,9.010791779E-3,-8.337020874E-3
1.112338495E0,3.805088997E-2,1.132154465E-2,-1.188278198E-3
1.117357870E0,5.022925138E-2,9.976387024E-3,-1.430892944E-2
1.122377245E0,4.108858109E-2,5.137443542E-3,-1.189231873E-2
1.127396620E0,4.045379162E-2,8.543133736E-3,9.466171265E-3
1.132415995E0,2.797579765E-2,1.436328888E-2,8.102416992E-3
1.137435370E0,2.975040674E-2,1.417624950E-2,7.943153381E-3
1.142454745E0,3.972840309E-2,1.866161823E-2,1.490116119E-2
1.147474120E0,4.123419523E-2,1.485562325E-2,3.725242615E-2
1.152493495E0,5.693221092E-2,1.224160194E-2,3.923416138E-2
1.157512870E0,3.797847033E-2,2.271151543E-2,4.477119446E-2
1.162532245E0,4.045361280E-2,2.845609188E-2,4.435729980E-2
1.167551620E0,3.098380566E-2,1.524066925E-2,1.903820038E-2
1.172570995E0,1.902973652E-2,2.003872395E-2,4.652023315E-3
1.177590370E0,1.297074556E-2,2.253723145E-2,-1.076602936E-2
1.182609745E0,-1.349806786E-3,1.326370239E-2,-1.772308350E-2
1.187629120E0,4.563629627E-3,2.080667019E-2,-2.459049225E-2
1.192648495E0,-6.130754948E-3,1.290392876E-2,-2.427577972E-2
1.197667870E0,-1.899564266E-2,1.932537556E-2,-2.159690857E-2
1.202687245E0,-3.059661388E-2,3.287708759E-2,1.787471771E-2
1.207706620E0,-1.604038477E-2,2.247524261E-2,4.869461060E-2
1.212725995E0,-5.147522688E-2,7.853186131E-2,7.923793793E-2
1.217745370E0,-3.388261795E-2,8.530974388E-2,1.047010422E-1
1.222764745E0,2.479237318E-2,6.790030003E-2,4.669570923E-2
1.227784120E0,5.917036533E-2,2.176916599E-2,-1.219367981E-2
1.232803495E0,7.845705748E-2,-6.735563278E-3,-6.601238251E-2
1.237822870E0,6.546723843E-2,-2.480888367E-2,-5.774116516E-2
1.242842245E0,4.953122139E-2,-4.557979107E-2,-4.600524902E-2
1.247861620E0,4.370921850E-2,-6.398928165E-2,-4.264450073E-2
1.252880995E0,4.925048351E-2,-4.772758484E-2,-4.873752594E-2
1.257900370E0,6.615525484E-2,-3.341031075E-2,-3.919506073E-2
1.262919745E0,1.012383103E-1,-2.557659149E-2,-5.088806152E-2
1.267939120E0,8.539515734E-2,-2.050781250E-2,-4.799747467E-2
1.272958495E0,4.985952377E-2,-1.646995544E-3,-5.677318573E-2
1.277977870E0,3.349661827E-3,8.177280426E-3,-7.004642487E-2
1.282997245E0,-1.480758190E-3,2.854585648E-3,-9.854507446E-2
1.288016620E0,1.025533676E-2,-1.417636871E-2,-8.641147614E-2
1.293035995E0,1.876056194E-3,-7.489919662E-3,-6.849002838E-2
1.298055370E0,3.425300121E-3,-2.144551277E-2,4.964828491E-3
1.303074745E0,-1.934587955E-3,-1.676976681E-2,9.312438965E-2
1.308094120E0,2.578198910E-3,2.646911144E-2,1.269845963E-1
1.313113495E0,1.586633921E-2,4.851388931E-2,2.078714371E-1
1.318135370E0,2.960091829E-2,6.392180920E-2,2.487545013E-1
1.323154954E0,5.213743448E-2,6.917953491E-2,2.333412170E-1
1.328174537E0,7.150638103E-2,7.178092003E-2,1.894626617E-1
1.333193912E0,6.143856049E-2,4.585421085E-2,9.842300415E-2
1.338213287E0,6.711226702E-2,4.163014889E-2,1.645374298E-2
1.343232662E0,5.012774467E-2,3.528785706E-2,-5.528640747E-2
1.348252037E0,4.145932198E-2,2.942156792E-2,-1.049642563E-1
1.353271412E0,4.919821024E-2,1.817643642E-2,-1.173019409E-1
1.358290787E0,5.072808266E-2,1.210248470E-2,-1.258907318E-1
1.363310162E0,3.535765409E-2,2.060508728E-2,-8.090877533E-2
1.368329537E0,3.671628237E-2,3.050744534E-2,-3.386974335E-2
1.373348912E0,3.800022602E-2,2.607572079E-2,1.753139496E-2
1.378368287E0,3.346526623E-2,3.232681751E-2,4.830265045E-2
1.383387662E0,2.898466587E-2,2.778589725E-2,6.337165833E-2
1.388407037E0,3.418427706E-2,2.904319763E-2,7.945537567E-2
1.393426412E0,2.501088381E-2,3.487527370E-2,5.501937866E-2
1.398445787E0,5.184173584E-3,4.415285587E-2,5.214595795E-2
1.403465162E0,-9.683609009E-3,4.496359825E-2,2.909564972E-2
1.408484537E0,-7.741391659E-3,4.814302921E-2,5.044937134E-3
1.413503912E0,4.821777344E-3,5.964601040E-2,-2.174377441E-3
1.418523287E0,-5.446076393E-4,5.557322502E-2,-1.883697510E-2
1.423542662E0,2.860671282E-2,3.969264030E-2,-1.517772675E-2
1.428562037E0,3.847706318E-2,4.414832592E-2,-3.053474426E-2
1.433581412E0,3.884047270E-2,3.444659710E-2,-2.437877655E-2
1.438600787E0,3.695160151E-2,4.643559456E-3,-1.947307587E-2
1.443620162E0,3.985291719E-2,-1.179528236E-2,-2.053642273E-2
1.448639537E0,4.618734121E-2,-2.445375919E-2,-2.868556976E-2
1.453658912E0,3.340923786E-2,-2.867877483E-2,-2.013969421E-2
1.458678287E0,2.898657322E-2,-3.871989250E-2,-2.113819122E-2
1.463697662E0,4.582881927E-2,-4.752850533E-2,-2.093601227E-2
1.468717037E0,4.579836130E-2,-4.199802876E-2,-1.359748840E-2
1.473736412E0,3.036141396E-2,-4.956543446E-2,-1.463127136E-2
1.478755787E0,1.489776373E-2,-4.051494598E-2,-2.202987671E-4
1.483775162E0,1.135808229E-2,-5.405044556E-2,-6.095886230E-3
1.488794537E0,1.139897108E-2,-5.317544937E-2,3.521919250E-3
1.493813912E0,6.479382515E-3,-4.278278351E-2,-2.346992493E-3
1.498833287E0,-9.205877781E-3,-1.228034496E-2,1.677608490E-2
1.503852662E0,-1.540601254E-2,3.733754158E-3,1.201343536E-2
1.508872037E0,-2.040344477E-2,-4.146218300E-3,1.560115814E-2
1.513891412E0,-9.852647781E-3,1.876330376E-2,1.200008392E-2
1.518910787E0,6.632685661E-3,1.768732071E-2,2.978038788E-2
1.523930162E0,1.350373030E-2,2.855896950E-2,1.893138885E-2
1.528949537E0,2.282947302E-2,1.072037220E-2,1.881980896E-2
1.533968912E0,4.301649332E-2,2.147030830E-2,-1.694011688E-2
1.538988287E0,4.068601131E-2,3.324878216E-2,-1.325988770E-2
1.544007662E0,4.541659355E-2,3.413438797E-2,1.293182373E-2
1.549027037E0,5.378311872E-2,3.512680531E-2,2.585792542E-2
1.554046412E0,6.120681763E-2,4.813945293E-2,2.443218231E-2
1.559065787E0,6.746155024E-2,1.375806332E-2,1.117801666E-2
1.564085162E0,6.294429302E-2,1.198446751E-2,-1.378154755E-2
1.569104537E0,3.323477507E-2,2.033591270E-3,-4.204368591E-2
1.574123912E0,3.544217348E-2,1.953256130E-2,-4.152870178E-2
1.579143287E0,5.042445660E-2,1.070642471E-2,-5.169010162E-2
1.584162662E0,4.870527983E-2,1.728689671E-2,-4.042148590E-2
1.589182037E0,7.680356503E-2,9.489297867E-3,-1.858997345E-2
1.594201412E0,8.715635538E-2,1.098728180E-2,-2.956390381E-3
1.599220787E0,8.099925518E-2,1.582002640E-2,2.435874939E-2
1.604240162E0,7.990175486E-2,1.677322388E-2,3.711986542E-2
1.609259537E0,4.191839695E-2,4.362893105E-2,4.737091064E-2
1.614278912E0,3.751873970E-2,4.993402958E-2,4.681968689E-2
1.619298287E0,3.312754631E-2,3.819346428E-2,3.080844879E-2
1.624317662E0,2.033340931E-2,3.713834286E-2,7.800102234E-3
1.629337037E0,7.531166077E-3,3.741931915E-2,-2.091312408E-2
1.634356412E0,-5.284070969E-3,3.307437897E-2,-3.035640717E-2
1.639375787E0,-3.828763962E-3,5.023956299E-2,-2.544879913E-2
1.644395162E0,-1.059174538E-4,4.483723640E-2,-1.460933685E-2
1.649414537E0,4.765927792E-3,4.438447952E-2,4.479408264E-3
1.654433912E0,1.787590981E-2,3.336310387E-2,1.037406921E-2
1.659453287E0,9.389400482E-3,3.677916527E-2,2.100086212E-2
1.664472662E0,3.297752142E-2,2.597343922E-2,1.374721527E-2
1.669492037E0,4.448753595E-2,2.123284340E-2,1.012325287E-2
1.674511412E0,3.933042288E-2,2.718913555E-2,2.432632446E-2
1.679530787E0,5.204010010E-2,3.908443451E-2,1.705265045E-2
1.684550162E0,5.751091242E-2,2.121627331E-2,4.070663452E-2
1.689569537E0,5.580836535E-2,2.839875221E-2,2.142238617E-2
1.694588912E0,5.881714821E-2,3.195357323E-2,3.554248810E-2
1.699608287E0,5.713170767E-2,1.880311966E-2,1.984882355E-2
1.704627662E0,5.081129074E-2,1.998090744E-2,2.920055389E-2
1.709647037E0,3.035932779E-2,1.985859871E-2,2.301597595E-2
1.714666412E0,2.087837458E-2,4.254460335E-3,1.923561096E-2
1.719685787E0,1.861721277E-2,7.796168327E-3,-1.130104065E-3
1.724705162E0,2.465683222E-2,-1.725673676E-3,4.959106445E-5
1.729724537E0,2.231317759E-2,1.142668724E-2,-2.726268768E-2
1.734743912E0,1.049494743E-2,7.832050323E-3,-2.229881287E-2
1.739763287E0,7.085442543E-3,4.375934601E-3,1.640319824E-3
1.744782662E0,6.012022495E-3,2.191662788E-3,-1.496505737E-2
1.749802037E0,1.803141832E-2,5.935668945E-3,-2.075672150E-2
1.754821412E0,2.045899630E-2,1.373171806E-3,-1.699542999E-2
1.759840787E0,3.350758553E-2,-1.136779785E-2,-1.917934418E-2
1.764860162E0,3.346270323E-2,-1.451349258E-2,-1.185798645E-2
1.769879537E0,3.695940971E-2,-1.418995857E-2,-1.055240631E-2
1.774898912E0,3.577798605E-2,-9.057998657E-3,-4.508018494E-3
1.779918287E0,1.905655861E-2,-1.576495171E-2,-1.629352570E-2
1.784937662E0,-1.305121183E-2,-6.018948555E-2,-6.591796875E-2
1.789957037E0,1.536357403E-2,-5.991661549E-2,-1.209592819E-1
1.794976412E0,4.908192158E-2,-2.354204655E-2,-1.481037140E-1
1.799995787E0,8.218938112E-2,3.446495533E-2,-1.558866501E-1
1.805015162E0,8.996260166E-2,1.113387346E-1,-1.053514481E-1
1.810034537E0,3.148299456E-2,1.068269014E-1,1.713752747E-3
1.815053912E0,4.797101021E-3,8.640205860E-2,1.243610382E-1
1.820073287E0,-2.962309122E-2,5.608177185E-2,1.734275818E-1
1.825092662E0,-3.606915474E-2,5.146253109E-2,1.649351120E-1
1.830112037E0,2.412337065E-2,9.815096855E-3,1.113405228E-1
1.835131412E0,5.885922909E-2,-7.653713226E-3,1.784992218E-2
1.840150787E0,1.075622439E-1,-2.364385128E-2,-8.314228058E-2
1.845170162E0,1.071370244E-1,-1.909601688E-2,-8.234119415E-2
1.850189537E0,8.534801006E-2,1.261675358E-2,-4.402160645E-3
1.855208912E0,4.841816425E-2,-7.467269897E-3,7.752895355E-2
1.860228287E0,2.868622541E-2,1.703262329E-3,1.467647552E-1
1.865247662E0,4.383051395E-2,1.833844185E-2,1.713218689E-1
1.870267037E0,4.481685162E-2,1.873791218E-2,1.444768906E-1
1.875286412E0,5.794250965E-2,3.524160385E-2,9.873676300E-2
1.880305787E0,3.664225340E-2,4.775035381E-2,4.737472534E-2
1.885325162E0,2.635091543E-2,4.700994492E-2,2.608871460E-2
1.890344537E0,6.749808788E-3,5.695927143E-2,1.090717316E-2
1.895363912E0,-1.057475805E-2,6.003713608E-2,-6.103801727E-2
1.900383287E0,3.596109152E-2,4.722511768E-2,-1.143932343E-1
1.905402662E0,1.019157171E-1,3.877401352E-2,-7.691192627E-2
1.910422037E0,9.463244677E-2,5.341827869E-2,-6.574440002E-2
1.915441412E0,8.836251497E-2,3.271949291E-2,-3.676319122E-2
1.920460787E0,6.195878983E-2,1.932621002E-2,1.216125488E-2
1.925480162E0,7.273185253E-2,1.735007763E-2,1.899490356E-1
1.930499537E0,5.981922150E-2,-1.846432686E-2,1.904277802E-1
1.935518912E0,-4.084587097E-3,-1.544380188E-2,1.314287186E-1
1.940538287E0,-9.335160255E-3,-1.177096367E-2,8.944797516E-2
1.945557662E0,-8.583188057E-3,8.177280426E-3,3.469753265E-2
1.950577037E0,-4.459929466E-2,6.521105766E-3,-2.554893494E-2
1.955596412E0,-9.330183268E-2,2.995908260E-2,-5.677890778E-2
1.960615787E0,-1.024429202E-1,3.813552856E-2,-1.114177704E-1
1.965635162E0,-4.868000746E-2,5.198359489E-3,-1.381931305E-1
1.970654745E0,-9.687125683E-3,2.862215042E-4,-1.231031418E-1
1.975674329E0,-7.954239845E-3,-1.125812531E-2,-1.329689026E-1
1.980693912E0,-2.408879995E-2,1.201617718E-2,-8.452224731E-2
1.985713495E0,-4.720610380E-2,1.275432110E-2,-2.931785583E-2
1.990733079E0,-2.976036072E-2,-1.973044872E-2,-1.968002319E-2
1.995752662E0,1.482141018E-2,-3.881466389E-2,1.957321167E-2
2.000772245E0,5.790001154E-2,-5.294477940E-2,-3.230094910E-3
2.005791829E0,9.712517262E-2,-3.013563156E-2,-3.289222717E-3
2.010811412E0,1.244484782E-1,-1.824367046E-2,2.154636383E-2
2.015830995E0,8.536630869E-2,-1.394581795E-2,5.201148987E-2
2.020850579E0,3.232145309E-2,-3.820323944E-2,-8.792877197E-4
2.025870162E0,9.106862545E-2,-7.503533363E-2,-4.731559753E-2
2.030889745E0,1.216603518E-1,-5.907428265E-2,-7.310295105E-2
2.035909329E0,7.566195726E-2,-5.578863621E-2,-1.567106247E-1
2.040928912E0,-1.299917698E-2,-2.452683449E-2,-2.121553421E-1
2.045948495E0,-3.944134712E-2,2.159547806E-2,-2.075910568E-1
2.050968079E0,4.688936472E-2,7.387006283E-2,-1.245756149E-1
2.055987662E0,1.549443007E-1,1.258571148E-1,6.818962097E-2
2.061007245E0,2.359581590E-1,1.713751554E-1,1.501159668E-1
2.066026829E0,1.609526873E-1,9.564161301E-2,2.869520187E-1
2.071046412E0,1.581418514E-2,5.650424957E-2,1.719589233E-1
2.076065995E0,-2.443546057E-2,-1.712715626E-2,9.461021423E-2
2.081085579E0,4.150801897E-2,-2.526783943E-2,3.798961639E-2
2.086105162E0,9.263002872E-2,-5.328178406E-3,3.120422363E-3
2.091124745E0,7.312822342E-2,2.717041969E-2,-3.507041931E-2
2.096144329E0,4.791069031E-2,4.863452911E-2,-1.954174042E-2
2.101163912E0,2.419906855E-2,5.801987648E-2,1.364803314E-2
2.106183495E0,4.834645987E-2,3.953123093E-2,1.675376892E-1
2.111203079E0,3.097128868E-2,3.465652466E-2,2.665510178E-1
2.116222662E0,1.764696836E-2,3.607046604E-2,2.482023239E-1
2.121242037E0,3.243100643E-2,3.542494774E-2,1.751718521E-1
2.126261412E0,1.107345819E-1,6.858944893E-3,7.882213593E-2
2.131280787E0,1.569440365E-1,2.312862873E-2,4.604053497E-2
2.136300162E0,8.901762962E-2,4.866671562E-2,3.724288940E-2
2.141319537E0,1.268982887E-4,4.804813862E-2,3.212928772E-2
2.146338912E0,-1.095352769E-1,5.253744125E-2,9.955883026E-2
2.151358287E0,-1.256484985E-1,2.752685547E-2,2.103900909E-1
2.156377662E0,-1.271140575E-1,-4.631519318E-3,2.691869736E-1
2.161397037E0,-5.339860916E-2,-3.565347195E-2,2.549886703E-1
2.166416412E0,1.413851976E-2,-7.714843750E-2,1.269073486E-1
2.171435787E0,6.217575073E-2,-8.850920200E-2,-8.678436279E-5
2.176455162E0,5.370247364E-2,-6.720864773E-2,-1.840648651E-1
2.181474537E0,1.413595676E-2,-5.370557308E-2,-2.951250076E-1
2.186493912E0,-1.136559248E-2,-2.911031246E-2,-2.887783051E-1
2.191513287E0,1.129585505E-2,3.814995289E-2,-1.363763809E-1
2.196532662E0,4.508507252E-2,9.068644047E-2,-1.050767899E-1
2.201552037E0,3.186780214E-2,9.519612789E-2,3.144264221E-3
2.206571412E0,-1.606220007E-2,6.373441219E-2,1.935405731E-1
2.211590787E0,-5.660653114E-2,3.917813301E-2,3.407268524E-1
2.216610162E0,-1.252093315E-1,-3.465282917E-2,3.713836670E-1
2.221629537E0,-1.452671885E-1,-6.426858902E-2,2.295522690E-1
2.226648912E0,-7.816970348E-2,-8.294069767E-2,2.358722687E-2
2.231668287E0,-4.817479849E-2,-5.856239796E-2,-7.974624634E-2
2.236687662E0,-1.015663147E-2,-9.330630302E-3,-1.121501923E-1
2.241707037E0,5.337023735E-2,1.483094692E-2,-2.106876373E-1
2.246726412E0,1.242320538E-1,7.269251347E-2,-2.239580154E-1
2.251745787E0,1.855351329E-1,1.295504570E-1,-1.300983429E-1
2.256765162E0,2.088299990E-1,1.414072514E-1,2.012825012E-2
2.261784537E0,1.602726579E-1,1.464959383E-1,1.858396530E-1
2.266803912E0,-3.134417534E-2,1.944452524E-1,1.566839218E-1
2.271823287E0,-2.071013451E-1,2.164099216E-1,-4.437255859E-2
2.276842662E0,-5.859839916E-2,1.359021664E-2,-1.878843307E-1
2.281862037E0,1.295067668E-1,-1.417472363E-1,-2.339639664E-1
2.286881412E0,3.191439509E-1,-2.611773014E-1,-1.406927109E-1
2.291900787E0,3.635604382E-1,-2.423814535E-1,-6.952285767E-4
2.296920162E0,2.471641302E-1,-1.404665709E-1,1.689424515E-1
2.301939537E0,1.149748564E-1,-1.483392715E-2,3.536281586E-1
2.306958912E0,-5.218386650E-3,4.828691483E-3,4.772148132E-1
2.311978287E0,-1.368026733E-1,2.742278576E-2,5.472965240E-1
2.316997662E0,-2.152273059E-1,2.936232090E-2,5.227756500E-1
2.322017037E0,-1.953824759E-1,5.082440376E-2,3.416290283E-1
2.327036412E0,-3.142412305E-1,1.685714722E-1,1.264076233E-1
2.332055787E0,-3.176321983E-1,1.652741432E-1,-2.515220642E-2
2.337075162E0,-2.712984085E-1,7.897853851E-2,-1.064653397E-1
2.342094537E0,-2.217224240E-1,-2.437174320E-2,-1.288318634E-1
2.347113912E0,-1.851707697E-1,-1.022113562E-1,-1.248826981E-1
2.352133287E0,-1.592770815E-1,-1.466810703E-1,-1.055517197E-1
2.357152662E0,-8.018171787E-2,-2.308669090E-1,-5.438518524E-2
2.362172037E0,1.452451944E-2,-3.122749329E-1,-7.327079773E-3
2.367191412E0,1.218414903E-1,-3.260450363E-1,3.919219971E-2
2.372210787E0,1.817317605E-1,-2.076916695E-1,4.957008362E-2
2.377230162E0,1.499302983E-1,1.325607300E-2,7.166957855E-2
2.382249537E0,1.833673716E-1,1.876202822E-1,1.280040741E-1
2.387268912E0,2.339389324E-1,2.862212658E-1,1.779565811E-1
2.392288912E0,2.032430172E-1,2.947841883E-1,2.050228119E-1
2.397309120E0,1.292725801E-1,3.132338524E-1,2.379531860E-1
2.402329172E0,-1.224899292E-2,3.064141273E-1,2.280883789E-1
2.407348860E0,-2.037752271E-1,2.628811598E-1,4.143981934E-1
2.412368287E0,-4.340988100E-1,1.834321022E-1,6.954021454E-1
2.417387662E0,-5.867850780E-1,7.978475094E-2,8.613243103E-1
2.422407037E0,-5.568810701E-1,-4.092490673E-2,8.905391693E-1
2.427426412E0,-3.346174359E-1,-9.881949425E-2,7.652750015E-1
2.432445787E0,-1.111859083E-2,-8.039474487E-2,6.542091370E-1
2.437465162E0,3.162039518E-1,-1.950991154E-2,5.525159836E-1
2.442484537E0,5.556795001E-1,3.946328163E-2,4.257030487E-1
2.447503912E0,6.630628705E-1,1.264234781E-1,3.167448044E-1
2.452523287E0,6.444574594E-1,1.736057997E-1,2.694253922E-1
2.457542662E0,6.248258948E-1,7.597684860E-2,2.535629272E-1
2.462562037E0,5.927596688E-1,-9.368526936E-2,2.748479843E-1
2.467581412E0,5.137503743E-1,-2.577232122E-1,3.494806290E-1
2.472600787E0,3.315212727E-1,-3.465238810E-1,4.732437134E-1
2.477620162E0,1.880910993E-1,-3.406842947E-1,5.648612976E-1
2.482639537E0,9.583836794E-2,-2.916877270E-1,6.717443466E-1
2.487658912E0,1.257634163E-2,-2.922680378E-1,7.138538361E-1
2.492678287E0,-1.544004083E-1,-2.842943668E-1,6.760025024E-1
2.497697662E0,-2.949746251E-1,-2.306798697E-1,5.267734528E-1
2.502717037E0,-3.621401191E-1,-1.657651663E-1,3.767929077E-1
2.507736412E0,-3.641229272E-1,-2.789735794E-2,5.998697281E-1
2.512755787E0,-1.687325239E-1,-1.074135303E-2,3.573923111E-1
2.517775162E0,3.457748890E-2,8.117508888E-2,1.962537766E-1
2.522794537E0,2.433528900E-1,1.921730042E-1,1.969804764E-1
2.527813912E0,3.677731752E-1,2.439249754E-1,2.991418839E-1
2.532833287E0,4.833617806E-1,2.262510061E-1,3.892459869E-1
2.537852662E0,5.273705125E-1,2.295404673E-1,5.813112259E-1
2.542872037E0,6.171606779E-1,2.647238970E-1,6.618537903E-1
2.547891412E0,6.976318955E-1,2.122991085E-1,6.649103165E-1
2.552910787E0,7.755448818E-1,1.297543049E-1,6.800842285E-1
2.557930162E0,7.851815820E-1,9.077465534E-2,6.870269775E-1
2.562949537E0,6.863071918E-1,6.649744511E-2,6.679601669E-1
2.567968912E0,5.493115187E-1,4.749310017E-2,6.503992081E-1
2.572988287E0,4.484160542E-1,7.747650146E-3,6.307697296E-1
2.578007662E0,3.538242877E-1,-4.265546799E-2,5.853910446E-1
2.583027037E0,2.112777829E-1,-5.082094669E-2,3.863267899E-1
2.588046412E0,7.336018980E-2,-6.283926964E-2,2.236700058E-1
2.593065787E0,-9.432284534E-2,-1.189202070E-1,2.728252411E-1
2.598085162E0,-2.412502915E-1,-8.384370804E-2,4.085073471E-1
2.603104537E0,-3.484009504E-1,-1.355973482E-1,4.887065887E-1
2.608123912E0,-3.971825242E-1,-2.512713671E-1,6.218824387E-1
2.613143287E0,-4.233413935E-1,-3.013499975E-1,6.520280838E-1
2.618162662E0,-4.865813553E-1,-3.238002062E-1,6.489000320E-1
2.623182037E0,-5.059669018E-1,-2.962428331E-1,6.886463165E-1
2.628201412E0,-4.619908929E-1,-2.237973213E-1,7.470264435E-1
2.633220787E0,-4.057967961E-1,-1.531238556E-1,8.367824554E-1
2.638240162E0,-3.568132520E-1,-6.032538414E-2,8.601808548E-1
2.643259537E0,-2.319033146E-1,2.638769150E-2,7.928085327E-1
2.648278912E0,-1.229771972E-2,8.720195293E-2,7.648172379E-1
2.653298287E0,2.253324687E-1,9.652817249E-2,8.103990555E-1
2.658317662E0,4.079543054E-1,9.742295742E-2,8.874759674E-1
2.663337037E0,5.500442386E-1,1.218740940E-1,9.947233200E-1
2.668356412E0,6.257628202E-1,1.028679609E-1,1.096359253E0
2.673375787E0,6.657871008E-1,7.341778278E-2,1.168704033E0
2.678395162E0,6.735141277E-1,-2.826547623E-2,1.259531021E0
2.683414537E0,6.031727195E-1,-1.260229349E-1,1.378155708E0
2.688433912E0,4.479036629E-1,-1.525546312E-1,1.512440681E0
2.693453287E0,2.644764781E-1,-1.631314754E-1,1.517396927E0
2.698472662E0,1.363542080E-1,-1.851148605E-1,1.442775726E0
2.703492037E0,6.874102354E-2,-1.955560446E-1,1.277372360E0
2.708511412E0,1.088630259E-1,-3.044551611E-1,1.021957397E0
2.713530787E0,-2.694079280E-2,-2.532364130E-1,9.467535019E-1
2.718550162E0,-1.843218207E-1,-1.607336998E-1,7.748346329E-1
2.723569537E0,-2.733712792E-1,-1.541717052E-1,6.162385941E-1
2.728588912E0,-3.148974776E-1,-1.022439003E-1,4.637584686E-1
2.733608287E0,-2.528688312E-1,-5.998551846E-2,3.897790909E-1
2.738627662E0,-1.308745295E-1,4.123270512E-2,2.749338150E-1
2.743647037E0,-3.155702353E-2,1.035871506E-1,1.362047195E-1
2.748666412E0,1.520954818E-2,1.441613436E-1,2.723026276E-2
2.753685787E0,-2.526757866E-2,2.306479812E-1,1.184654236E-2
2.758705162E0,-7.552317530E-2,2.904059887E-1,-4.131889343E-2
2.763724537E0,-1.261809915E-1,2.725671530E-1,-1.089191437E-2
2.768743912E0,-1.447951496E-1,2.313144803E-1,3.893852234E-3
2.773763287E0,-1.260844916E-1,2.263831496E-1,1.504421234E-2
2.778782662E0,-5.223498493E-2,2.622530460E-1,7.602596283E-2
2.783802037E0,1.895941049E-2,2.755087614E-1,1.567554474E-1
2.788821412E0,7.135435194E-2,2.627938986E-1,2.333517075E-1
2.793840787E0,1.423613280E-1,2.314202785E-1,2.025909424E-1
2.798860162E0,1.565250456E-1,1.956557631E-1,1.674547195E-1
2.803879537E0,7.985712588E-2,1.577669382E-1,1.030302048E-1
2.808898912E0,9.952887893E-3,1.415735483E-1,3.567504883E-2
2.813918287E0,-2.118839324E-2,1.055315733E-1,2.003479004E-2
2.818937662E0,-4.586537182E-2,9.237933159E-2,4.141426086E-2
2.823957037E0,-6.675350666E-2,7.109302282E-2,7.932949066E-2
2.828976412E0,-8.982655406E-2,3.680866957E-2,5.883598328E-2
2.833995787E0,-1.005754173E-1,5.245006084E-2,-4.167556763E-3
2.839015162E0,-1.246447265E-1,5.826514959E-2,-4.286670685E-2
2.844034537E0,-1.423543394E-1,2.229505777E-2,-8.954524994E-2
2.849053912E0,-1.151304841E-1,1.511418819E-2,-2.011384964E-1
2.854073287E0,-8.642882109E-2,1.399374008E-2,-3.166046143E-1
2.859092662E0,-1.288610995E-1,4.880076647E-2,-3.742218018E-1
2.864112037E0,-2.513697445E-1,8.607351780E-2,-4.706983566E-1
2.869131412E0,-3.385630846E-1,1.450968981E-1,-5.808057785E-1
2.874150787E0,-4.011342227E-1,1.820718050E-1,-6.260766983E-1
2.879170162E0,-4.076918364E-1,1.533354521E-1,-6.675691605E-1
2.884189537E0,-3.311433196E-1,1.141037345E-1,-6.553955078E-1
2.889208912E0,-2.359588891E-1,6.778931618E-2,-6.433963776E-1
2.894228287E0,-7.010331750E-2,2.248108387E-2,-6.754522324E-1
2.899247662E0,1.216975451E-1,-3.535938263E-2,-6.716365814E-1
2.904267037E0,2.453829348E-1,-7.007092237E-2,-7.141151428E-1
2.909286412E0,2.360857725E-1,-9.996384382E-2,-7.087011337E-1
2.914305787E0,1.162040234E-1,-1.334681511E-1,-6.759424210E-1
2.919325162E0,-3.971457481E-4,-1.684069037E-1,-6.006288528E-1
2.924344537E0,-1.154586375E-1,-2.287526131E-1,-5.341720581E-1
2.929363912E0,-1.607507467E-1,-2.812306285E-1,-4.859981537E-1
2.934383287E0,-1.948470175E-1,-2.758709788E-1,-4.974946976E-1
2.939402662E0,-2.411587387E-1,-2.545731068E-1,-5.372962952E-1
2.944422037E0,-2.750689983E-1,-2.242901325E-1,-5.541133881E-1
2.949441412E0,-3.074814975E-1,-2.050368190E-1,-5.481405258E-1
2.954460787E0,-2.910065353E-1,-1.694450378E-1,-5.231695175E-1
2.959480162E0,-2.510478497E-1,-1.612966061E-1,-5.031118393E-1
2.964499537E0,-1.904253066E-1,-1.958287954E-1,-5.615730286E-1
2.969518912E0,-9.208166599E-2,-2.286972404E-1,-5.898914337E-1
2.974538287E0,9.347766638E-3,-2.589205503E-1,-5.824098587E-1
2.979557662E0,8.980840445E-2,-2.389626503E-1,-6.094493866E-1
2.984577037E0,1.560620368E-1,-2.237346172E-1,-6.517000198E-1
2.989596412E0,2.396400869E-1,-1.797286272E-1,-7.529096603E-1
2.994615787E0,2.518967986E-1,-1.247043014E-1,-8.258657455E-1
2.999635162E0,1.913911700E-1,-5.828273296E-2,-8.552846909E-1
3.004654537E0,8.244514465E-2,-1.573127508E-2,-8.117418289E-1
3.009673912E0,5.659604073E-2,1.402217150E-2,-7.147760391E-1
3.014693287E0,1.377770305E-1,2.526938915E-3,-5.885457993E-1
3.019712662E0,2.378957272E-1,-1.934105158E-2,-3.965339661E-1
3.024732037E0,3.079352379E-1,-5.208897591E-2,-1.880521774E-1
3.029751412E0,4.196988344E-1,-1.035040617E-1,-4.648303986E-2
3.034770787E0,4.634456635E-1,-1.894586682E-1,7.245445251E-2
3.039790162E0,4.008373618E-1,-2.328554988E-1,4.881668091E-2
3.044809537E0,3.005104065E-1,-2.543659806E-1,-1.033735275E-1
3.049829068E0,1.895255446E-1,-2.125026584E-1,-3.024768829E-1
3.054848651E0,7.904773951E-2,-1.192050576E-1,-5.053672791E-1
3.059868235E0,4.086136818E-3,-4.224848747E-2,-7.166814804E-1
3.064887818E0,-9.504616261E-2,2.972286940E-2,-8.340892792E-1
3.069907401E0,-1.870930791E-1,5.909746885E-2,-9.270000458E-1
3.074926985E0,-1.948845088E-1,3.462314606E-2,-9.253683090E-1
3.079946568E0,-9.523963928E-2,-7.619321346E-3,-8.725500107E-1
3.084966151E0,9.721589088E-2,-1.057881117E-2,-8.745269775E-1
3.089985735E0,2.617752552E-1,-1.760351658E-2,-8.227853775E-1
3.095005318E0,3.750998974E-1,7.613301277E-3,-6.643695831E-1
3.100024901E0,4.102482796E-1,-1.891529560E-2,-5.296478271E-1
3.105044485E0,4.638969898E-1,-3.672039509E-2,-4.469766617E-1
3.110064068E0,4.901381731E-1,-2.365744114E-2,-4.266824722E-1
3.115083651E0,4.449945092E-1,5.251288414E-3,-4.339303970E-1
3.120103235E0,3.141250610E-1,3.821444511E-2,-4.684972763E-1
3.125125787E0,9.046536684E-2,7.893282175E-2,-5.325403214E-1
3.130143912E0,-1.403117776E-1,1.218161583E-1,-6.792230606E-1
3.135162037E0,-2.593198717E-1,1.321312189E-1,-9.232015610E-1
3.140180162E0,-2.767285109E-1,1.490954161E-1,-1.178104401E0
3.145198391E0,-2.717025280E-1,1.863387227E-1,-1.351184845E0
3.150216829E0,-3.082580864E-1,1.893060803E-1,-1.464863777E0
3.155235474E0,-3.190726936E-1,1.808180213E-1,-1.501665115E0
3.160254329E0,-2.747807503E-1,1.705133319E-1,-1.452122688E0
3.165273391E0,-2.225700617E-1,1.669309139E-1,-1.367718697E0
3.170292662E0,-1.352291107E-1,1.688162088E-1,-1.223401070E0
3.175312141E0,-4.137140512E-2,1.541603208E-1,-9.786767960E-1
3.180331829E0,9.338733554E-2,4.318523407E-2,-7.541437149E-1
3.185351724E0,2.346209288E-1,-4.987323284E-2,-5.741243362E-1
3.190371829E0,3.804168701E-1,-1.019648314E-1,-3.635396957E-1
3.195392037E0,4.956176281E-1,-1.423774958E-1,-1.583366394E-1
3.200412245E0,5.715155005E-1,-1.550630331E-1,2.245235443E-2
3.205432454E0,6.109933257E-1,-1.607133150E-1,1.896696091E-1
3.210452662E0,6.154944301E-1,-1.574870348E-1,3.030033112E-1
3.215472870E0,5.851166844E-1,-1.170641184E-1,3.439064026E-1
3.220493079E0,5.957692862E-1,-9.794044495E-2,3.153676987E-1
3.225513183E0,5.508856773E-1,-4.642224312E-2,2.393455505E-1
3.230532974E0,4.400153756E-1,-3.851866722E-2,1.079654694E-1
3.235552454E0,2.859332561E-1,-6.782233715E-2,-8.777523041E-2
3.240571829E0,7.407093048E-2,-8.724236488E-2,-3.021326065E-1
3.245591204E0,-1.348438859E-1,-8.654260635E-2,-4.611663818E-1
3.250610579E0,-3.442149758E-1,1.033627987E-2,-6.296291351E-1
3.255629954E0,-3.423531055E-1,-2.994310856E-2,-1.047109604E0
3.260649329E0,-5.049132109E-1,-4.155266285E-2,-1.138054848E0
3.265668704E0,-6.446022987E-1,-3.246700764E-2,-1.188889503E0
3.270688079E0,-7.056191564E-1,-3.157162666E-2,-1.274847031E0
3.275707454E0,-6.837671995E-1,-4.926931858E-2,-1.371949196E0
3.280726829E0,-5.684891939E-1,-7.236087322E-2,-1.378044128E0
3.285746204E0,-4.329620600E-1,-5.952048302E-2,-1.306975365E0
3.290765579E0,-2.931841314E-1,-4.092621803E-2,-1.203302383E0
3.295784954E0,-1.284066439E-1,-3.599226475E-2,-1.081542969E0
3.300804329E0,3.176748753E-3,-1.395726204E-2,-1.039151192E0
3.305823704E0,1.375843287E-1,3.083062172E-2,-9.199094772E-1
3.310843079E0,2.429706454E-1,8.242738247E-2,-8.170394897E-1
3.315862454E0,3.448868990E-1,1.368602514E-1,-6.544294357E-1
3.320881829E0,4.593172073E-1,1.416999102E-1,-5.227890015E-1
3.325901204E0,6.116804481E-1,1.363605261E-1,-3.577499390E-1
3.330920579E0,7.090919018E-1,1.086655855E-1,-2.712316513E-1
3.335939954E0,7.120286822E-1,7.985305786E-2,-2.531423569E-1
3.340959329E0,6.417733431E-1,7.947528362E-2,-2.946338654E-1
3.345978704E0,5.153042674E-1,8.717358112E-2,-4.308633804E-1
3.350998079E0,2.936493158E-1,1.161713600E-1,-6.218919754E-1
3.356017454E0,5.358147621E-2,1.526131630E-1,-8.648853302E-1
3.361036829E0,-2.131499946E-1,1.920810938E-1,-1.100073814E0
3.366056204E0,-4.364741445E-1,1.945269704E-1,-1.309728622E0
3.371075579E0,-6.362035871E-1,1.521958113E-1,-1.522562981E0
3.376094954E0,-7.255291939E-1,1.264424324E-1,-1.725442886E0
3.381114329E0,-6.904299259E-1,1.374601126E-1,-1.863781929E0
3.386133704E0,-5.660735369E-1,1.733657122E-1,-2.012804985E0
3.391153079E0,-3.945187330E-1,2.542697191E-1,-2.034635544E0
3.396172454E0,-2.217861712E-1,3.094987273E-1,-2.028862000E0
3.401191829E0,-7.367739081E-2,3.275731206E-1,-2.052630424E0
3.406211204E0,7.895117998E-2,3.786307573E-1,-1.934740067E0
3.411230579E0,1.762912273E-1,4.026349783E-1,-1.880595684E0
3.416249954E0,2.567125857E-1,4.222096205E-1,-1.892058372E0
3.421269329E0,3.330900967E-1,4.323593378E-1,-1.841588974E0
3.426288704E0,3.943633735E-1,4.460096359E-1,-1.836564064E0
3.431308079E0,4.591037333E-1,4.326529503E-1,-1.809542656E0
3.436327454E0,5.159947872E-1,4.285205603E-1,-1.790890694E0
3.441346829E0,5.695239902E-1,4.261249304E-1,-1.762704372E0
3.446366204E0,5.907438993E-1,4.286848307E-1,-1.770468712E0
3.451385579E0,5.352625847E-1,4.183534384E-1,-1.791411400E0
3.456404954E0,4.412543178E-1,3.887553811E-1,-1.836326599E0
3.461424329E0,2.918871343E-1,3.122152686E-1,-1.826313019E0
3.466443704E0,7.305720448E-2,2.461113334E-1,-1.921647072E0
3.471463079E0,-1.667732000E-1,1.856952906E-1,-2.050459385E0
3.476482454E0,-3.347145319E-1,1.453194618E-1,-2.169690609E0
3.481501829E0,-5.233868361E-1,1.094511747E-1,-2.266215324E0
3.486521204E0,-7.082077861E-1,8.420336246E-2,-2.362778187E0
3.491540579E0,-9.145839810E-1,9.472131729E-2,-2.400822639E0
3.496559954E0,-1.064418077E0,1.075640917E-1,-2.406731606E0
3.501579329E0,-1.124112368E0,1.145278215E-1,-2.412807465E0
3.506598704E0,-1.112007737E0,9.194791317E-2,-2.384342670E0
3.511618079E0,-1.074366331E0,8.558833599E-2,-2.292638302E0
3.516637454E0,-9.691925049E-1,7.763552666E-2,-2.156860828E0
3.521656829E0,-8.153142929E-1,6.836760044E-2,-1.961474419E0
3.526676204E0,-6.497381330E-1,4.962146282E-2,-1.790184021E0
3.531695579E0,-4.432704151E-1,4.553997517E-2,-1.603458405E0
3.536714954E0,-2.167408019E-1,3.357839584E-2,-1.453874588E0
3.541734329E0,-2.773582935E-2,2.340078354E-2,-1.306685448E0
3.546753704E0,1.361869276E-1,1.263618469E-2,-1.186985970E0
3.551773079E0,2.849958837E-1,2.022349834E-2,-1.068455696E0
3.556792454E0,3.800258636E-1,2.100110054E-2,-9.499130249E-1
3.561811829E0,4.441361725E-1,-6.309747696E-4,-9.330120087E-1
3.566831204E0,5.387582183E-1,-4.364740849E-2,-1.005743980E0
3.571850579E0,5.736551881E-1,-1.107124090E-1,-1.028244972E0
3.576869954E0,5.590335131E-1,-1.903330088E-1,-1.115503311E0
3.581889329E0,3.603352904E-1,-2.611715794E-1,-1.169527054E0
3.586908704E0,-1.259326935E-2,-2.708395720E-1,-1.197635651E0
3.591928079E0,-4.848976731E-1,-2.825628519E-1,-1.234539986E0
3.596947454E0,-9.091978073E-1,-2.912746668E-1,-1.263455391E0
3.601966829E0,-1.189528584E0,-2.836143374E-1,-1.207790375E0
3.606986204E0,-1.361120939E0,-2.676005363E-1,-1.095003128E0
3.612005579E0,-1.437913537E0,-2.153921127E-1,-9.584903717E-1
3.617024954E0,-1.381357431E0,-1.277238131E-1,-8.208398819E-1
3.622044329E0,-1.209879637E0,-3.054219484E-2,-7.190065384E-1
3.627063704E0,-9.899108410E-1,4.654932022E-2,-6.050481796E-1
3.632083079E0,-7.502533197E-1,1.302727461E-1,-4.705619812E-1
3.637102454E0,-5.235222578E-1,2.374171615E-1,-3.096113205E-1
3.642121829E0,-2.545140386E-1,2.287883759E-1,-2.620391846E-1
3.647141204E0,3.798843920E-2,2.537810206E-1,-4.559326172E-2
3.652160579E0,3.561444879E-1,2.497314811E-1,8.240795135E-2
3.657179954E0,6.511075497E-1,2.495021224E-1,2.068815231E-1
3.662199329E0,8.405871391E-1,2.415732145E-1,4.413232803E-1
3.667218704E0,9.202705026E-1,1.750783920E-1,6.384687424E-1
3.672238079E0,9.697470665E-1,4.325091839E-2,7.301416397E-1
3.677257454E0,1.007577658E0,-1.148071885E-1,8.156633377E-1
3.682276829E0,1.005736113E0,-2.325765491E-1,8.567399979E-1
3.687296204E0,9.279613495E-1,-3.187732100E-1,8.163347244E-1
3.692315579E0,7.503017187E-1,-3.316926956E-1,7.136583328E-1
3.697334954E0,5.062303543E-1,-3.177719116E-1,5.846662521E-1
3.702354329E0,2.784118652E-1,-2.730529308E-1,3.827695847E-1
3.707373704E0,-3.751337528E-3,-1.979880929E-1,1.618947983E-1
3.712393079E0,-3.844090402E-1,-2.726763487E-2,-3.725528717E-2
3.717412454E0,-8.238316774E-1,1.800580025E-1,-1.943674088E-1
3.722431829E0,-1.277917147E0,3.952491283E-1,-4.301643372E-1
3.727451204E0,-1.617260814E0,6.133060455E-1,-5.854501724E-1
3.732470579E0,-1.780266881E0,7.979024649E-1,-5.442714691E-1
3.737489954E0,-1.689377904E0,9.133201838E-1,-3.869113922E-1
3.742509329E0,-1.361261129E0,9.307960868E-1,-1.517353058E-1
3.747528704E0,-9.043885469E-1,8.572329879E-1,1.456298828E-1
3.752548079E0,-3.890237212E-1,8.208326697E-1,4.787607193E-1
3.757567454E0,1.326107383E-1,7.213416696E-1,8.224573135E-1
3.762586829E0,6.264070272E-1,6.320669651E-1,1.131223679E0
3.767606204E0,1.081499696E0,5.339716673E-1,1.393054962E0
3.772625579E0,1.437314391E0,4.309689999E-1,1.607934952E0
3.777644954E0,1.737014413E0,2.537826896E-1,1.664639473E0
3.782664329E0,1.960739970E0,2.443307638E-2,1.681657791E0
3.787683704E0,2.079610109E0,-2.160815001E-1,1.647003174E0
3.792703079E0,2.084739447E0,-4.082373381E-1,1.530834198E0
3.797722454E0,1.942811966E0,-4.789550304E-1,1.265128136E0
3.802741829E0,1.646174192E0,-4.467054605E-1,9.983673096E-1
3.807761204E0,1.242893696E0,-3.413951397E-1,7.066946030E-1
3.812780579E0,8.254729509E-1,-1.362447739E-1,3.388099670E-1
3.817799954E0,4.678454399E-1,8.795368671E-2,-1.015253067E-1
3.822819329E0,2.086502612E-1,3.376110196E-1,-4.933872223E-1
3.827838704E0,1.085752249E-2,5.172247291E-1,-8.522882462E-1
3.832858079E0,-1.827972233E-1,6.146545410E-1,-1.107611656E0
3.837877454E0,-4.009940326E-1,6.698055267E-1,-1.273709297E0
3.842896829E0,-5.801264048E-1,6.934920549E-1,-1.321886063E0
3.847916204E0,-7.334435582E-1,6.852634549E-1,-1.174520493E0
3.852935579E0,-8.200148344E-1,6.502932310E-1,-8.701286316E-1
3.857954954E0,-8.428896666E-1,5.625028610E-1,-4.555978775E-1
3.862974329E0,-7.458404899E-1,4.660677910E-1,5.327129364E-2
3.867993704E0,-5.082533360E-1,3.500909805E-1,5.402183533E-1
3.873013079E0,-1.753258109E-1,2.864329815E-1,9.668636322E-1
3.878032454E0,2.124285251E-1,2.420040965E-1,1.266197205E0
3.883051933E0,5.717518926E-1,1.716376543E-1,1.505179405E0
3.888071516E0,8.886096478E-1,6.652295589E-2,1.641920090E0
3.893091099E0,1.126796484E0,-5.582010746E-2,1.775683403E0
3.898110683E0,1.223954558E0,-1.415653229E-1,1.835900307E0
3.903130266E0,1.227653503E0,-1.723834276E-1,1.805952072E0
3.908149849E0,1.194846749E0,-1.953256130E-1,1.788854599E0
3.913169433E0,1.185216904E0,-2.014180422E-1,1.796626091E0
3.918189016E0,1.150298715E0,-2.248680592E-1,1.780313492E0
3.923208599E0,1.106121778E0,-2.066034079E-1,1.636069298E0
3.928228183E0,1.028454542E0,-2.214120626E-1,1.389330864E0
3.933247766E0,9.396932125E-1,-2.520570755E-1,1.165903091E0
3.938267349E0,7.770841122E-1,-2.146635056E-1,1.050725937E0
3.943286933E0,4.974497557E-1,-1.645438671E-1,9.767141342E-1
3.948306516E0,1.314204931E-1,-1.054831743E-1,9.784917831E-1
3.953326099E0,-2.734396756E-1,-3.293931484E-2,9.973573685E-1
3.958345683E0,-6.461106539E-1,-5.957961082E-3,1.039198875E0
3.963365266E0,-1.008163333E0,-7.155776024E-3,1.120617867E0
3.968384849E0,-1.324738503E0,-9.330070019E-2,1.151781082E0
3.973404433E0,-1.429664850E0,-2.073515654E-1,1.127864838E0
3.978424016E0,-1.324091196E0,-2.829252481E-1,1.151623726E0
3.983443599E0,-1.021410823E0,-3.028200865E-1,1.269447327E0
3.988463183E0,-5.853340030E-1,-3.334004879E-1,1.416475296E0
3.993482766E0,-1.261416078E-1,-3.437916040E-1,1.495680809E0
3.998502349E0,2.545304298E-1,-3.713476658E-1,1.609815598E0
4.003521933E0,5.477173924E-1,-3.919780254E-1,1.712159157E0
4.008541516E0,6.753626466E-1,-3.596191406E-1,1.701145172E0
4.013561099E0,6.873928308E-1,-2.769999504E-1,1.645169258E0
4.018580683E0,6.411952376E-1,-1.246787310E-1,1.543323517E0
4.023600266E0,6.051210165E-1,-7.352828979E-4,1.413804054E0
4.028619849E0,6.147052050E-1,7.202816010E-2,1.247311592E0
4.033639329E0,6.422954202E-1,1.123540401E-1,1.076374054E0
4.038658704E0,6.305826306E-1,9.910678864E-2,9.513635635E-1
4.043678079E0,5.558280945E-1,9.117960930E-2,8.687686920E-1
4.048697454E0,4.227819145E-1,2.881407738E-2,8.429584503E-1
4.053716829E0,2.179605365E-1,-8.020019531E-2,9.096822739E-1
4.058736204E0,2.586400509E-2,-1.947983503E-1,1.032871246E0
4.063755579E0,-1.672213078E-1,-3.121633530E-1,1.131069183E0
4.068774954E0,-3.214123845E-1,-4.197410345E-1,1.216190338E0
4.073794329E0,-4.457985163E-1,-4.873589277E-1,1.300098419E0
4.078813704E0,-5.053251386E-1,-5.180633068E-1,1.398265839E0
4.083833079E0,-5.059994459E-1,-5.318032503E-1,1.468713760E0
4.088852454E0,-4.362636209E-1,-5.505683422E-1,1.522150993E0
4.093871829E0,-3.325434327E-1,-5.516517162E-1,1.543036461E0
4.098891204E0,-2.138885856E-1,-5.026962757E-1,1.518218040E0
4.103910579E0,-1.280968189E-1,-4.286373854E-1,1.425001144E0
4.108929954E0,-1.560443640E-2,-3.312305212E-1,1.292176247E0
4.113949329E0,1.094813347E-1,-2.467583418E-1,1.162891388E0
4.118968704E0,1.459000707E-1,-1.673649549E-1,1.002503395E0
4.123988079E0,1.178271174E-1,-1.244707108E-1,8.147716522E-1
4.129007454E0,6.535351276E-2,-6.368875504E-2,6.548452377E-1
4.134026829E0,-1.814371347E-2,-1.304233074E-1,4.857292175E-1
4.139046204E0,-2.725183964E-2,-1.556633711E-1,4.067134857E-1
4.144065579E0,-5.493897200E-2,-1.870898008E-1,3.543729782E-1
4.149084954E0,-1.054663658E-1,-2.402402163E-1,3.394689560E-1
4.154104329E0,-1.448246241E-1,-3.081518412E-1,3.225030899E-1
4.159123704E0,-1.869267821E-1,-3.385429382E-1,3.632459641E-1
4.164143079E0,-2.219924331E-1,-3.867528439E-1,4.257307053E-1
4.169162454E0,-2.560268641E-1,-4.303679466E-1,4.548883438E-1
4.174181829E0,-2.674746513E-1,-4.373838902E-1,4.578990936E-1
4.179201204E0,-3.044641018E-1,-4.044444561E-1,4.383363724E-1
4.184220579E0,-2.918488979E-1,-3.590718508E-1,3.878469467E-1
4.189240995E0,-2.456057072E-1,-3.288100958E-1,3.207826614E-1
4.194261516E0,-2.085658908E-1,-2.454705238E-1,2.992563248E-1
4.199279016E0,-2.100822926E-1,-1.976536512E-1,2.800989151E-1
4.204296516E0,-2.316918373E-1,-1.744397879E-1,2.943449020E-1
4.209314120E0,-2.713419795E-1,-1.651896238E-1,3.012418747E-1
4.214331933E0,-2.994518876E-1,-1.495777369E-1,3.497848511E-1
4.219349954E0,-3.088800907E-1,-1.470550299E-1,4.195480347E-1
4.224368183E0,-2.969652414E-1,-1.602901220E-1,4.841833115E-1
4.229386724E0,-2.706267834E-1,-1.776071787E-1,5.377006531E-1
4.234405683E0,-2.426336408E-1,-1.787873507E-1,5.562248230E-1
4.239425058E0,-1.873985529E-1,-1.495666504E-1,5.709228516E-1
4.244444745E0,-1.273549795E-1,-1.329550743E-1,5.280361176E-1
4.249464641E0,-6.698977947E-2,-1.036978960E-1,5.161638260E-1
4.254484745E0,-2.303683758E-2,-8.691036701E-2,5.209217072E-1
4.259505058E0,1.063448191E-2,-6.094682217E-2,4.956932068E-1
4.264525579E0,6.276315451E-2,-2.110934258E-2,4.883337021E-1
4.269546204E0,1.369287372E-1,4.084110260E-4,4.677543640E-1
4.274566829E0,1.869217157E-1,-1.189708710E-2,4.495553970E-1
4.279587454E0,2.550529838E-1,-2.229034901E-2,4.289560318E-1
4.284608079E0,2.819363773E-1,-4.636394978E-2,4.239139557E-1
4.289628704E0,2.931835651E-1,-5.810761452E-2,4.021081924E-1
4.294648808E0,2.662090063E-1,-8.400464058E-2,3.611469269E-1
4.299668287E0,1.498112082E-1,-9.180510044E-2,2.938785553E-1
4.304687662E0,-8.052229881E-3,-1.125141382E-1,2.266530991E-1
4.309707037E0,-1.761512160E-1,-1.196177006E-1,1.630878448E-1
4.314726412E0,-3.340364099E-1,-1.138319969E-1,1.247844696E-1
4.319745787E0,-4.787635803E-1,-6.735610962E-2,9.146881104E-2
4.324765162E0,-6.218264103E-1,-1.714169979E-2,6.079769135E-2
4.329784537E0,-7.027479410E-1,5.623090267E-2,-1.257419586E-2
4.334803912E0,-6.481764317E-1,1.099466085E-1,-6.873703003E-2
4.339823287E0,-5.036149025E-1,1.429919004E-1,-1.268043518E-1
4.344842662E0,-3.233993649E-1,1.770876646E-1,-1.233949661E-1
4.349862037E0,-1.718895435E-1,1.704845428E-1,-7.416820526E-2
4.354881412E0,-1.314407587E-2,1.506065130E-1,-5.573272705E-3
4.359900787E0,1.637932658E-1,1.411565542E-1,9.063243866E-2
4.364920162E0,3.084083498E-1,1.370452642E-1,2.321929932E-1
4.369939537E0,4.138475060E-1,1.558820009E-1,3.256683350E-1
4.374958912E0,4.729701579E-1,1.436841488E-1,3.590316772E-1
4.379978287E0,5.210921764E-1,1.374305487E-1,4.147758484E-1
4.384997662E0,5.340766311E-1,1.117969751E-1,4.569416046E-1
4.390017037E0,5.107508302E-1,4.385530949E-2,4.914817810E-1
4.395036412E0,4.608402252E-1,7.436752319E-3,4.944458008E-1
4.400055787E0,3.545673192E-1,-4.500043392E-2,4.898958206E-1
4.405075162E0,1.555477381E-1,-6.467449665E-2,4.932918549E-1
4.410094537E0,-1.325201392E-1,-1.168454885E-1,4.156351089E-1
4.415113912E0,-4.191575050E-1,-1.556974649E-1,3.158998489E-1
4.420133287E0,-5.826713443E-1,-1.572077274E-1,2.549285889E-1
4.425152662E0,-6.446846724E-1,-1.523497105E-1,2.289266586E-1
4.430172037E0,-6.173164845E-1,-1.208763123E-1,2.174863815E-1
4.435191412E0,-5.219982266E-1,-9.380912781E-2,1.884908676E-1
4.440210787E0,-3.747367859E-1,-2.487266064E-2,2.133045197E-1
4.445230162E0,-1.795336604E-1,5.217909813E-2,2.902650833E-1
4.450249537E0,6.141126156E-3,1.276274920E-1,3.595523834E-1
4.455268912E0,1.903062165E-1,2.002116442E-1,3.820180893E-1
4.460288287E0,3.418306410E-1,2.603154182E-1,4.126224518E-1
4.465307662E0,5.136843920E-1,2.712672949E-1,4.643230438E-1
4.470327037E0,6.448422670E-1,2.617805004E-1,5.131607056E-1
4.475346412E0,7.378319502E-1,2.046091557E-1,5.187826157E-1
4.480365787E0,7.653864622E-1,1.107321978E-1,5.302019119E-1
4.485385162E0,7.226349115E-1,3.251481056E-2,5.343246460E-1
4.490404537E0,5.525011420E-1,-3.016591072E-2,5.431156158E-1
4.495423912E0,3.388012350E-1,-4.665410519E-2,4.960174561E-1
4.500443287E0,1.408393979E-1,-4.319679737E-2,4.434194565E-1
4.505462662E0,-8.808732033E-3,1.700043678E-3,3.937358856E-1
4.510482037E0,-1.256191730E-1,6.550538540E-2,3.327531815E-1
4.515501412E0,-2.250388265E-1,1.636857986E-1,2.795848846E-1
4.520520787E0,-2.718262374E-1,2.284171581E-1,2.602825165E-1
4.525540162E0,-2.908284664E-1,2.705465555E-1,2.697677612E-1
4.530559537E0,-2.224856019E-1,2.654384375E-1,2.781143188E-1
4.535578912E0,-1.254559755E-1,2.466570139E-1,3.232812881E-1
4.540598287E0,-3.883038461E-2,1.717013121E-1,3.800325394E-1
4.545617662E0,-2.938255668E-2,1.192915440E-1,4.257011414E-1
4.550641099E0,-7.883086801E-2,5.961811543E-2,5.161895752E-1
4.555658391E0,-1.508881748E-1,3.176915646E-2,6.143121719E-1
4.560675683E0,-2.222370803E-1,8.251476288E-2,7.531929016E-1
4.565692974E0,-1.466688216E-1,5.131256580E-2,6.203470230E-1
4.570710474E0,-1.375255585E-1,-9.657382965E-3,6.015644073E-1
4.575728183E0,-1.057885289E-1,-5.396246910E-3,6.673822403E-1
4.580746099E0,-6.718938798E-2,1.236224174E-2,6.758117676E-1
4.585764433E0,4.785443097E-2,3.607594967E-2,6.557731628E-1
4.590783183E0,2.331111878E-1,5.123579502E-2,6.383228302E-1
4.595802349E0,4.194400311E-1,2.924680710E-2,6.162796021E-1
4.600821933E0,5.893907547E-1,1.133561134E-3,5.516576767E-1
4.605841933E0,6.659205556E-1,-1.167047024E-2,4.910993576E-1
4.610862141E0,6.445778608E-1,-4.232788086E-2,4.405288696E-1
4.615882558E0,5.315583348E-1,-6.565833092E-2,4.188680649E-1
4.620903183E0,3.815702200E-1,-4.954242706E-2,3.867197037E-1
4.625924016E0,2.095797062E-1,-2.632224560E-2,3.631725311E-1
4.630944849E0,5.814939365E-2,3.373754025E-2,2.959403992E-1
4.635965683E0,-2.466705441E-2,5.555307865E-2,2.103242874E-1
4.640986516E0,-8.001401275E-2,8.332872391E-2,1.563282013E-1
4.646007349E0,-9.775324166E-2,8.605968952E-2,9.212875366E-2
4.651027141E0,-8.564531058E-2,9.719252586E-2,7.242012024E-2
4.656046724E0,-4.874949157E-2,1.023485661E-1,8.851337433E-2
4.661066099E0,-5.124041438E-2,8.010709286E-2,1.056680679E-1
4.666085474E0,-8.646645397E-2,5.657160282E-2,1.630086899E-1
4.671104849E0,-1.479121000E-1,1.379382610E-2,2.399902344E-1
4.676124224E0,-1.909331828E-1,-4.104518890E-2,3.008127213E-1
4.681143599E0,-1.890003383E-1,-8.071970940E-2,3.360748291E-1
4.686162974E0,-1.150097251E-1,-7.787358761E-2,3.851909637E-1
4.691182349E0,-6.542819738E-2,-5.064404011E-2,3.696956635E-1
4.696201724E0,3.193914890E-4,1.098632812E-3,3.673439026E-1
4.701221099E0,4.527769983E-2,3.327608109E-2,3.637914658E-1
4.706240474E0,1.131511033E-1,5.813932419E-2,3.709583282E-1
4.711259849E0,1.312965602E-1,4.462885857E-2,4.290742874E-1
4.716279224E0,2.075484246E-1,-1.115441322E-3,4.830932617E-1
4.721298599E0,2.536444366E-1,-4.470455647E-2,4.890708923E-1
4.726317974E0,2.997590899E-1,-5.653059483E-2,4.675750732E-1
4.731337349E0,3.698807359E-1,-7.613658905E-2,4.354314804E-1
4.736356724E0,4.065648913E-1,-1.034128666E-1,3.761186600E-1
4.741376099E0,3.695365787E-1,-7.767474651E-2,2.958173752E-1
4.746395474E0,2.852853239E-1,-3.368854523E-2,2.350873947E-1
4.751414849E0,1.636339575E-1,5.970597267E-3,1.474895477E-1
4.756434224E0,8.780889213E-2,4.503178596E-2,7.126331329E-2
4.761453599E0,4.507005215E-4,6.949853897E-2,-9.074211121E-3
4.766472974E0,-9.250248969E-2,7.484781742E-2,-4.242420197E-2
4.771492349E0,-1.648223698E-1,4.121339321E-2,-7.307529449E-2
4.776511724E0,-1.855633408E-1,1.063561440E-2,-9.271430969E-2
4.781531099E0,-1.797102392E-1,1.872897148E-2,-1.121168137E-1
4.786550474E0,-1.236923486E-1,3.186488152E-2,-9.212684631E-2
4.791569849E0,-4.280158132E-2,3.549551964E-2,-5.092239380E-2
4.796589224E0,9.581975639E-2,4.265403748E-2,-5.636501312E-2
4.801608599E0,1.943002492E-1,4.360687733E-2,-4.399490356E-2
4.806627974E0,2.577447593E-1,3.815901279E-2,-3.181362152E-2
4.811647349E0,2.946207523E-1,4.410696030E-2,-5.306434631E-2
4.816666724E0,2.986050546E-1,1.532387733E-2,-7.654857635E-2
4.821686099E0,2.553052008E-1,4.455375671E-2,-1.081991196E-1
4.826705474E0,1.861843616E-1,3.334510326E-2,-1.466550827E-1
4.831724849E0,7.502825558E-2,1.195132732E-2,-1.550188065E-1
4.836744224E0,-1.343168318E-2,-3.993988037E-3,-1.537075043E-1
4.841763599E0,-1.024240404E-1,-5.108118057E-3,-1.404514313E-1
4.846782974E0,-1.556669772E-1,-2.459716797E-2,-8.447265625E-2
4.851802349E0,-1.589779854E-1,-4.455149174E-2,-1.344490051E-2
4.856821724E0,-1.105590016E-1,-2.577006817E-2,4.639625549E-2
4.861841099E0,-3.924025595E-2,9.897828102E-3,1.366662979E-1
4.866860474E0,8.449423313E-2,2.714037895E-3,2.238245010E-1
4.871879849E0,2.303032726E-1,2.049255371E-2,2.473230362E-1
4.876899224E0,3.656796813E-1,8.209776878E-2,1.744737625E-1
4.881918599E0,4.975169897E-1,1.669354439E-1,1.437807083E-1
4.886937974E0,4.441312551E-1,1.299650669E-1,1.370878220E-1
4.891957349E0,2.544672489E-1,6.360161304E-2,1.387605667E-1
4.896976724E0,3.770889342E-2,-5.782604218E-3,1.546688080E-1
4.901996099E0,-1.048838943E-1,-4.734265804E-2,1.371965408E-1
4.907015474E0,-2.011418939E-1,-8.734309673E-2,6.289196014E-2
4.912034849E0,-2.537077963E-1,-1.161425114E-1,2.722454071E-2
4.917054224E0,-1.596636325E-1,-8.404397964E-2,6.903553009E-2
4.922073599E0,-1.317232847E-2,-4.991006851E-2,1.057415009E-1
4.927092974E0,1.674064994E-1,-6.593573093E-2,1.647024155E-1
4.932112349E0,3.153638840E-1,-5.241894722E-2,2.219438553E-1
4.937131724E0,4.381929040E-1,-1.214194298E-2,2.097806931E-1
4.942151099E0,6.199651957E-1,9.714376926E-2,1.643695831E-1
4.947170474E0,5.209653378E-1,5.900573730E-2,7.058429718E-2
4.952189849E0,3.194153011E-1,4.082334042E-2,5.702304840E-2
4.957209224E0,1.030090153E-1,2.466368675E-2,6.366539001E-2
4.962228599E0,-9.616532922E-2,-5.972743034E-3,2.032852173E-2
4.967247974E0,-3.042005002E-1,-1.616847515E-2,-4.995441437E-2
4.972267349E0,-4.695744216E-1,-4.970872402E-2,-1.279220581E-1
4.977286724E0,-5.438910127E-1,-8.134305477E-2,-1.743106842E-1
4.982306099E0,-6.440318823E-1,-1.359239817E-1,-1.846275330E-1
4.987325474E0,-5.929651260E-1,-8.632123470E-2,-1.912355423E-1
4.992344849E0,-3.888995349E-1,-6.923675537E-3,-2.250041962E-1
4.997364224E0,-1.344745457E-1,2.248084545E-2,-2.382097244E-1
5.002383599E0,2.483062446E-2,1.880574226E-2,-1.633729935E-1
5.007402974E0,7.427862287E-2,4.632115364E-3,-9.149360657E-2
5.012422349E0,4.808519781E-2,-7.033586502E-3,5.917549133E-3
5.017441724E0,2.646949887E-2,4.007458687E-3,5.030441284E-2
5.022461099E0,3.111128509E-2,6.712436676E-3,6.346988678E-2
5.027480474E0,6.912569702E-2,-1.748800278E-4,7.057380676E-2
5.032499849E0,1.223833710E-1,1.728534698E-5,6.335258484E-2
5.037519224E0,1.694844365E-1,-4.722952843E-3,7.870769501E-2
5.042538599E0,1.805910170E-1,4.691839218E-3,4.998874664E-2
5.047557974E0,1.452231705E-1,1.864421368E-2,5.116367340E-2
5.052577349E0,1.100895107E-1,3.250479698E-2,6.539440155E-2
5.057596724E0,8.114430308E-2,4.740571976E-2,3.320407867E-2
5.062616099E0,6.689682603E-2,4.794895649E-2,-1.771450043E-2
5.067635474E0,5.644604564E-2,5.322146416E-2,-5.040740967E-2
5.072654849E0,4.865851998E-2,5.711030960E-2,-4.131126404E-2
5.077674224E0,8.734548092E-2,7.979154587E-2,2.346992493E-2
5.082693599E0,1.102513969E-1,1.185410023E-1,8.764457703E-2
5.087712974E0,9.882053733E-2,1.438045502E-1,8.834075928E-2
5.092732349E0,6.999677420E-2,1.937299967E-1,2.015876770E-2
5.097751724E0,-1.162648201E-2,2.041389942E-1,-2.370834351E-2
5.102771099E0,-5.423264205E-2,2.121678591E-1,-6.601715088E-2
5.107790474E0,-6.312856078E-2,2.106363773E-1,-7.355022430E-2
5.112809849E0,-1.275375485E-2,1.747176647E-1,-7.863616943E-2
5.117829224E0,4.385969043E-2,1.141517162E-1,-7.298660278E-2
5.122848599E0,7.811003923E-2,6.475269794E-2,-5.787754059E-2
5.127867974E0,9.129673243E-2,4.671561718E-2,-7.491493225E-2
5.132887349E0,9.685266018E-2,2.312910557E-2,-6.445217133E-2
5.137906724E0,7.960656285E-2,-3.539919853E-3,-5.045700073E-2
5.142926099E0,7.086998224E-2,-1.558709145E-2,-2.705478668E-2
5.147945474E0,7.903137803E-2,-1.669263840E-2,-7.383346558E-3
5.152964849E0,2.328777015E-1,1.094627380E-1,-2.070426941E-3
5.157984224E0,2.488322556E-1,1.517841816E-1,-7.271575928E-2
5.163003599E0,1.841855049E-1,1.314111948E-1,-8.687591553E-2
5.168022974E0,1.322189569E-1,2.103101015E-1,-9.369468689E-2
5.173042349E0,9.505638480E-2,2.748924494E-1,-1.086616516E-1
5.178061724E0,6.035777926E-2,2.898371220E-1,-1.803331375E-1
5.183081099E0,3.081229329E-2,2.589527369E-1,-1.824445724E-1
5.188100474E0,6.302624941E-3,2.431710958E-1,-1.951093674E-1
5.193119849E0,1.295092702E-2,2.553381920E-1,-1.992588043E-1
5.198139224E0,3.836962581E-2,2.583518028E-1,-1.700429916E-1
5.203158599E0,4.136329889E-2,2.973203659E-1,-1.231641769E-1
5.208177974E0,8.961081505E-3,3.029969931E-1,-4.216384888E-2
5.213197349E0,1.037445664E-2,2.874195576E-1,5.484294891E-2
5.218216724E0,4.798275232E-2,2.481991053E-1,1.474981308E-1
5.223236099E0,1.360985935E-1,1.675328016E-1,2.013654709E-1
5.228255474E0,2.279139757E-1,1.084810495E-1,2.487812042E-1
5.233274849E0,2.974390686E-1,9.093093872E-2,2.541618347E-1
5.238294224E0,3.127527237E-1,7.636880875E-2,2.451267242E-1
5.243313599E0,2.968976200E-1,7.324218750E-2,1.957092285E-1
5.248332974E0,2.513355911E-1,6.598186493E-2,1.347274780E-1
5.253352349E0,1.880741119E-1,6.425559521E-2,5.755901337E-2
5.258371724E0,8.130154014E-2,1.840734482E-2,4.510688782E-2
5.263391099E0,-3.291183710E-2,-1.785826683E-2,5.407524109E-2
5.268410474E0,-8.332067728E-2,-4.691052437E-2,2.850627899E-2
5.273433704E0,-1.308481693E-1,-8.407223225E-2,1.739025116E-2
5.278453704E0,-1.491204947E-1,-1.174447536E-1,1.702499390E-2
5.283473079E0,-1.655525565E-1,-1.741577387E-1,3.566741943E-2
5.288492454E0,-1.287588775E-1,-1.947194338E-1,4.108047485E-2
5.293511829E0,-1.080257595E-1,-1.903042793E-1,8.556938171E-2
5.298531204E0,-7.492977381E-2,-1.861027479E-1,1.082592010E-1
5.303550579E0,2.240437269E-2,-1.405636072E-1,1.034097672E-1
5.308569954E0,1.310852170E-1,-7.315146923E-2,1.258325577E-1
5.313589329E0,2.684443593E-1,-1.833653450E-2,7.562732697E-2
5.318608704E0,2.809906006E-1,1.922559738E-2,1.124734879E-1
5.323628079E0,1.863554716E-1,3.739333153E-2,9.083843231E-2
5.328647454E0,1.079359055E-1,3.861522675E-2,5.629062653E-2
5.333666829E0,5.635505915E-2,-2.673542500E-2,2.557468414E-2
5.338686204E0,5.321025848E-3,-1.025140285E-1,-1.088333130E-2
5.343705579E0,-4.641923308E-2,-1.396672726E-1,4.009246826E-3
5.348724954E0,-7.045707107E-2,-1.790324450E-1,-2.441406250E-4
5.353744329E0,-1.061495841E-1,-2.360594273E-1,1.568317413E-2
5.358763704E0,-9.866699576E-2,-2.571198940E-1,1.007747650E-2
5.363783079E0,-6.951498985E-2,-3.137910366E-1,7.925891876E-2
5.368802454E0,-7.097542286E-2,-3.752088547E-1,1.489324570E-1
5.373821829E0,-7.425448298E-2,-4.058787823E-1,1.953191757E-1
5.378841204E0,-7.912391424E-2,-4.726314545E-1,2.078990936E-1
5.383860579E0,-6.619513035E-2,-6.049090624E-1,1.774282455E-1
5.388879954E0,-1.782326996E-1,-5.873105526E-1,1.612482071E-1
5.393899329E0,-1.265032887E-1,-3.106703758E-1,1.165428162E-1
5.398918704E0,-4.465198517E-2,-1.185586452E-1,-9.754180908E-3
5.403938079E0,1.722753048E-2,-5.878067017E-2,-1.077127457E-1
5.408957454E0,6.165933609E-2,-6.227886677E-2,-1.039056778E-1
5.413976829E0,5.551499128E-2,-4.312348366E-2,-8.941650391E-2
5.418996204E0,-6.487697363E-3,-2.874588966E-2,-8.095359802E-2
5.424015579E0,-7.054433227E-2,1.188814640E-2,-7.843399048E-2
5.429034954E0,-4.280138016E-2,3.115379810E-2,-7.942104340E-2
5.434054329E0,6.045609713E-3,2.802646160E-2,-8.270645142E-2
5.439073704E0,6.269297004E-2,5.257415771E-2,-8.588886261E-2
5.444093079E0,8.566346765E-2,6.196463108E-2,-5.214691162E-2
5.449112454E0,5.149805546E-2,6.440472603E-2,-3.644180298E-2
5.454131829E0,4.837957025E-2,8.258438110E-2,-2.198410034E-2
5.459151204E0,4.637843370E-2,7.226645947E-2,1.019382477E-2
5.464170579E0,3.710600734E-2,4.547941685E-2,1.761436462E-3
5.469189954E0,1.586166024E-2,3.092849255E-2,-1.250171661E-2
5.474209329E0,-1.500046253E-2,1.068592072E-3,-2.069759369E-2
5.479228704E0,-4.448264837E-3,5.964756012E-3,-3.591537476E-2
5.484248079E0,-1.316428185E-3,2.755367756E-2,-1.536273956E-2
5.489267454E0,-1.978302002E-2,3.838324547E-2,2.879238129E-2
5.494286829E0,1.653292775E-2,2.298426628E-2,4.883098602E-2
5.499306204E0,7.069358230E-2,1.781940460E-3,6.394195557E-2
5.504325579E0,1.141758263E-1,-1.813626289E-2,8.126831055E-2
5.509344954E0,1.123533845E-1,-2.125787735E-2,1.150636673E-1
5.514364329E0,1.131012738E-1,-1.855015755E-2,1.058073044E-1
5.519383704E0,1.092549562E-1,1.015865803E-2,5.861568451E-2
5.524403079E0,1.151934862E-1,3.525865078E-2,1.540660858E-2
5.529422454E0,1.246179044E-1,2.815854549E-2,-9.620666504E-3
5.534441829E0,9.807708859E-2,3.651583195E-2,-2.019023895E-2
5.539461204E0,9.164527059E-2,3.412437439E-2,-9.290695190E-3
5.544480579E0,8.737057447E-2,4.602599144E-2,-4.120445251E-2
5.549499954E0,9.350886941E-2,4.497444630E-2,-6.448650360E-2
5.554519329E0,1.232549846E-1,6.999039650E-2,9.759902954E-3
5.559538704E0,8.049002290E-2,5.580627918E-2,-1.511096954E-2
5.564558079E0,4.774561524E-2,5.144941807E-2,-2.936363220E-3
5.569577454E0,5.225980282E-2,-4.268884659E-4,-3.833770752E-4
5.574596829E0,3.068497777E-2,-2.593553066E-2,-2.044582367E-2
5.579616204E0,4.609566927E-2,-6.455981731E-2,-1.190662384E-2
5.584635579E0,5.541720986E-2,-5.663859844E-2,1.296997070E-3
5.589654954E0,8.246010542E-2,-4.676842690E-2,2.445220947E-3
5.594674329E0,9.628054500E-2,1.641392708E-2,-3.559970856E-2
5.599693704E0,8.984526992E-2,5.073034763E-2,-5.430412292E-2
5.604713079E0,6.332606077E-2,6.241083145E-2,-7.043647766E-2
5.609732454E0,2.635121346E-2,6.357717514E-2,-7.807064056E-2
5.614751829E0,-8.990496397E-3,3.883361816E-2,-7.966613770E-2
5.619771204E0,-1.454290748E-2,4.896962643E-2,-6.931972504E-2
5.624790579E0,-2.488431334E-2,7.222044468E-2,-8.039474487E-2
5.629809954E0,-1.737284660E-2,7.048010826E-2,-9.016323090E-2
5.634829329E0,8.817225695E-3,1.058875322E-1,-1.306352615E-1
5.639848704E0,2.856877446E-2,9.636604786E-2,-1.374206543E-1
5.644868079E0,2.179053426E-2,6.006026268E-2,-1.167421341E-1
5.649887454E0,4.159033298E-3,1.607215405E-2,-6.766986847E-2
5.654906829E0,-1.945465803E-2,-3.702998161E-3,-1.170158386E-3
5.659926204E0,-8.457124233E-3,-1.727330685E-2,3.037261963E-2
5.664945579E0,2.624082565E-2,-2.014398575E-2,7.825088501E-2
5.669964954E0,7.992181182E-2,1.899957657E-3,7.822704315E-2
5.674984329E0,1.275927126E-1,1.431465149E-2,5.445861816E-2
5.680003704E0,1.431092024E-1,-3.094911575E-3,3.324127197E-2
5.685023079E0,1.277864873E-1,-1.165866852E-4,2.170658112E-2
5.690042454E0,8.758953214E-2,-1.745057106E-2,2.924156189E-2
5.695061829E0,4.283723235E-2,-3.361415863E-2,4.024982452E-2
5.700081204E0,3.273680806E-2,-8.069896698E-2,4.400920868E-2
5.705100579E0,7.118937373E-2,-1.122722626E-1,7.617187500E-2
5.710119954E0,8.308461308E-2,-1.000652313E-1,9.730243683E-2
5.715139329E0,9.969958663E-2,-6.205058098E-2,7.784843445E-2
5.720158704E0,7.717621326E-2,-3.405761719E-2,2.526473999E-2
5.725178079E0,5.381327868E-2,2.452278137E-2,-3.152847290E-3
5.730197454E0,5.692708492E-2,5.765438080E-2,-4.042625427E-3
5.735216829E0,6.478554010E-2,8.222246170E-2,2.713203430E-2
5.740236204E0,7.727995515E-2,9.476149082E-2,6.399345398E-2
5.745255579E0,4.937031865E-2,1.059395075E-1,6.610393524E-2
5.750274954E0,1.680222154E-2,9.192085266E-2,5.035972595E-2
5.755294329E0,-1.193779707E-2,9.337687492E-2,5.965995789E-2
5.760313704E0,-1.810133457E-2,8.040380478E-2,6.410789490E-2
5.765333079E0,-1.239067316E-2,6.983709335E-2,4.713630676E-2
5.770352454E0,1.552343369E-3,6.291866302E-2,2.674579620E-2
5.775371829E0,3.331583738E-2,6.549930573E-2,7.695198059E-3
5.780391204E0,7.072052360E-2,5.034756660E-2,1.850223541E-2
5.785410579E0,6.033933163E-2,3.760933876E-2,5.413150787E-2
5.790429954E0,3.688415885E-2,1.056194305E-3,6.331253052E-2
5.795449329E0,1.476320624E-2,-2.712464333E-2,5.574798584E-2
5.800468704E0,8.278578520E-3,-5.774211884E-2,3.987407684E-2
5.805488079E0,3.991913795E-2,-2.423334122E-2,1.523971558E-3
5.810507454E0,1.210180223E-1,5.278515816E-2,2.708435059E-4
5.815526829E0,2.722884119E-1,1.504257917E-1,-2.709293365E-2
5.820546204E0,2.262132466E-1,8.699917793E-2,-5.184364319E-2
5.825565579E0,1.070042849E-1,4.067039490E-2,-3.988265991E-3
5.830584954E0,-1.324331760E-2,-1.253652573E-2,1.493263245E-2
5.835604329E0,-1.191844642E-1,-3.099775314E-2,3.722000122E-2
5.840623704E0,-2.544572353E-1,-9.445095062E-2,-9.566307068E-3
5.845643079E0,-2.279682755E-1,-6.467342377E-2,-5.595684052E-2
5.850662454E0,-8.662652969E-2,3.048658371E-3,-1.137847900E-1
5.855681829E0,2.490872145E-2,4.560685158E-2,-1.461257935E-1
5.860701204E0,5.812355876E-2,2.522230148E-2,-1.068906784E-1
5.865720579E0,5.758908391E-2,1.253533363E-2,-8.688068390E-2
5.870739954E0,5.677521229E-3,1.482486725E-3,-6.101608276E-2
5.875759329E0,-8.296072483E-4,1.590323448E-2,-9.147644043E-3
5.880778704E0,-2.740961313E-2,1.987504959E-2,-8.686065674E-3
5.885798079E0,1.382032037E-2,3.351998329E-2,-1.767539978E-2
5.890817454E0,5.115002394E-2,2.238774300E-2,1.857471466E-2
5.895836829E0,5.832868814E-2,2.331686020E-2,1.062870026E-2
5.900856204E0,6.764370203E-2,3.150629997E-2,-2.807521820E-2
5.905875579E0,5.171650648E-2,5.175232887E-2,-6.402015686E-2
5.910894954E0,5.467069149E-2,6.856274605E-2,-1.209573746E-1
5.915914329E0,2.298355103E-2,9.278416634E-2,-1.595125198E-1
5.920933704E0,-1.334971189E-2,1.029479504E-1,-1.038732529E-1
5.925953079E0,-3.870868683E-2,8.574795723E-2,2.847385406E-2
5.930972454E0,-5.569577217E-2,6.608271599E-2,8.726119995E-2
5.935991829E0,4.929810762E-2,2.764964104E-2,3.875160217E-2
5.941011204E0,-2.216774225E-2,-1.956820488E-2,-1.159286499E-2
5.946030579E0,-5.258661509E-2,-2.997159958E-2,1.152801514E-1
5.951049954E0,3.316661716E-2,-4.452610016E-2,9.134006500E-2
5.956069329E0,1.201161444E-1,-8.785510063E-2,-4.933357239E-3
5.961088704E0,1.637658477E-1,-1.263277531E-1,4.396438599E-4
5.966108079E0,1.358179450E-1,-1.288750172E-1,-3.728866577E-3
5.971127454E0,7.811242342E-2,-9.687614441E-2,1.116943359E-2
5.976146829E0,1.130321622E-1,-1.616716385E-2,-8.555889130E-2
5.981166204E0,1.272736490E-1,-2.974963188E-2,-4.728794098E-2
5.986186933E0,9.267511964E-2,-2.577447891E-2,8.912086487E-2
5.991208704E0,8.677613735E-2,-1.283264160E-2,9.845352173E-2
5.996229120E0,1.011451483E-1,-5.017995834E-3,6.610012054E-2
6.001248495E0,8.466455340E-2,-3.338813782E-3,9.053230286E-3
6.006267870E0,4.215556383E-2,1.608657837E-2,-2.853298187E-2
6.011287245E0,-3.394871950E-3,5.562019348E-2,-3.374099731E-2
6.016306620E0,-3.081709146E-2,8.422327042E-2,-4.600524902E-2
6.021325995E0,-2.837127447E-2,8.429932594E-2,-4.981040955E-2
6.026345370E0,1.295566559E-3,9.298610687E-2,-7.250785828E-2
6.031364745E0,4.501345754E-2,6.618738174E-2,-9.734821320E-2
6.036384120E0,6.344246864E-2,3.507184982E-2,-9.344291687E-2
6.041403495E0,5.201482773E-2,5.638122559E-3,-6.221199036E-2
6.046422870E0,2.888935804E-2,-4.483461380E-3,-4.072380066E-2
6.051442245E0,3.446614742E-2,9.133815765E-4,-2.793312073E-3
6.056461620E0,9.230136871E-3,-3.119468689E-3,1.822090149E-2
6.061480995E0,2.714586258E-2,1.429724693E-2,1.294612885E-2
6.066500370E0,3.574055433E-2,5.046510696E-2,1.743316650E-3
6.071519745E0,5.307686329E-2,5.898761749E-2,2.146434784E-2
6.076539120E0,7.661145926E-2,4.954314232E-2,4.454135895E-2
6.081558495E0,1.121232510E-1,4.707169533E-2,5.786323547E-2
6.086577870E0,1.177452803E-1,2.175688744E-2,7.337570190E-2
6.091597245E0,1.412408352E-1,2.216124535E-2,1.420373917E-1
6.096616620E0,5.574131012E-2,3.686332703E-2,2.051038742E-1
6.101635995E0,-4.535001516E-2,3.642678261E-2,1.344976425E-1
6.106655370E0,-3.980717063E-2,4.649829865E-2,8.698749542E-2
6.111674745E0,1.416862011E-3,6.597876549E-2,5.173778534E-2
6.116694120E0,6.725710630E-2,6.297397614E-2,4.176139832E-2
6.121713495E0,8.751732111E-2,4.467034340E-2,8.055973053E-2
6.126732870E0,8.749687672E-2,2.165102959E-2,1.035718918E-1
6.131752245E0,1.216996908E-1,2.801203728E-2,1.725921631E-1
6.136771620E0,5.916059017E-2,2.995824814E-2,1.803321838E-1
6.141790995E0,-1.832944155E-2,1.109838486E-2,1.439514160E-1
6.146810370E0,-9.693384171E-3,9.595632553E-3,1.267328262E-1
6.151829745E0,2.450406551E-3,1.960086823E-2,8.820533752E-2
6.156849120E0,-2.129793167E-3,1.734423637E-2,6.180381775E-2
6.161868495E0,-5.781054497E-4,-1.466083527E-2,-3.681850433E-2
6.166887870E0,1.406812668E-2,-2.012085915E-2,-1.626968384E-3
6.171907245E0,3.098160028E-2,-9.854078293E-3,-5.095958710E-2
6.176926620E0,5.605518818E-2,2.597451210E-2,-1.305875778E-1
6.181945995E0,4.766476154E-2,4.820775986E-2,-1.404876709E-1
6.186965370E0,-7.047563791E-2,8.546209335E-2,-2.367877960E-1
6.191984745E0,-1.083171666E-1,7.690238953E-2,-2.680540085E-1
6.197004120E0,3.140025735E-1,2.831935883E-2,-1.625051498E-1
6.202023495E0,3.397690654E-1,-3.613471985E-3,-1.089572906E-1
6.207042870E0,7.491171360E-3,1.034498215E-3,-4.644203186E-2
6.212062245E0,-8.533364534E-2,2.774477005E-3,1.073455811E-2
6.217081620E0,-2.381113172E-2,8.985519409E-3,4.604911804E-2
6.222100995E0,6.164163351E-2,-6.631135941E-3,8.575344086E-2
6.227120370E0,1.317423582E-1,-2.925968170E-2,1.097126007E-1
6.232139745E0,1.379296184E-1,-3.374385834E-2,7.179450989E-2
6.237159120E0,2.383571863E-1,-6.157612801E-2,-5.352516174E-1
6.242178495E0,1.791313887E-1,-5.990672112E-2,-9.904785156E-1
6.247197870E0,8.449923992E-2,-9.784936905E-3,-5.843095779E-1
6.252217245E0,7.840448618E-2,1.855826378E-2,-3.510093689E-1
6.257236620E0,6.274223328E-2,1.379442215E-2,-1.349897385E-1
6.262255995E0,7.319140434E-2,2.553606033E-2,5.665493011E-2
6.267277662E0,5.607801676E-2,2.930259705E-2,1.776962280E-1
6.272296620E0,2.953886986E-2,4.411935806E-2,2.631330490E-1
6.277315579E0,1.762706041E-2,6.616044044E-2,3.191471100E-1
6.282334537E0,1.456987858E-2,8.493685722E-2,3.519563675E-1
6.287353495E0,2.760237455E-2,1.016204357E-1,3.795423508E-1
6.292372454E0,4.145586491E-2,8.679318428E-2,3.307552338E-1
6.297391412E0,4.541277885E-2,9.417271614E-2,2.727184296E-1
6.302410370E0,3.116142750E-2,6.201863289E-2,2.150516510E-1
6.307429329E0,1.514458656E-2,4.160809517E-2,1.411285400E-1
6.312448287E0,1.242136955E-2,-4.832744598E-4,8.907508850E-2
6.317467245E0,1.096177101E-2,-1.416420937E-2,4.328918457E-2
6.322486204E0,2.319395542E-3,-9.158849716E-3,-3.391265869E-3
6.327505162E0,2.675980330E-2,5.123853683E-3,-2.834224701E-2
6.332524329E0,4.737323523E-2,7.318019867E-3,-4.598140717E-2
6.337543704E0,5.704104900E-2,7.358074188E-3,-3.848457336E-2
6.342563287E0,6.658846140E-2,1.823067665E-2,-3.813838959E-2
6.347582870E0,6.534141302E-2,1.022744179E-2,-1.400279999E-2
6.352602454E0,4.863113165E-2,2.868652344E-2,7.622718811E-3
6.357622037E0,4.029422998E-2,2.342104912E-2,1.130580902E-2
6.362641620E0,3.194022179E-2,4.565024376E-2,4.111194611E-2
6.367661204E0,3.196334839E-2,4.037022591E-2,3.980064392E-2
6.372680787E0,4.626870155E-2,5.410623550E-2,5.155086517E-2
6.377700370E0,3.787243366E-2,5.452561378E-2,4.773998260E-2
6.382719954E0,4.145032167E-2,5.009627342E-2,4.512310028E-2
6.387739537E0,2.129113674E-2,4.078912735E-2,6.874084473E-3
6.392759120E0,2.020329237E-2,3.502869606E-2,3.356933594E-3
6.397778704E0,2.988779545E-2,-1.522779465E-3,-2.862071991E-2
6.402798287E0,3.713703156E-2,-4.544258118E-3,-3.659439087E-2
6.407817870E0,4.436230659E-2,-1.111817360E-2,-4.094505310E-2
6.412837454E0,3.851979971E-2,-3.303194046E-2,-5.237674713E-2
6.417857037E0,3.505057096E-2,-4.048252106E-2,-5.183124542E-2
6.422876620E0,4.461318254E-2,-5.741047859E-2,-3.942584991E-2
6.427896204E0,6.957507133E-2,-3.491234779E-2,-3.184986115E-2
6.432915787E0,5.160963535E-2,-5.655908585E-2,-3.384304047E-2
6.437935370E0,5.032992363E-2,-5.423712730E-2,-3.699016571E-2
6.442954954E0,4.184925556E-2,-5.194735527E-2,-2.467632294E-2
6.447974537E0,3.333353996E-2,-5.553388596E-2,-2.193927765E-2
6.452994120E0,1.997041702E-2,-4.248762131E-2,-2.241134644E-4
6.458013704E0,7.752180099E-3,-2.239942551E-2,-1.547718048E-2
6.463033287E0,-2.060413361E-3,-4.838228226E-3,-1.634883881E-2
6.468052870E0,7.020890713E-3,-1.705169678E-3,-2.965927124E-3
6.473072454E0,6.491482258E-3,1.329851151E-2,-1.557350159E-3
6.478092037E0,-8.369088173E-3,3.645181656E-2,-2.034473419E-2
6.483111620E0,-1.727700233E-3,3.680515289E-2,1.324558258E-2
6.488130995E0,2.041804790E-2,2.413535118E-2,2.519035339E-2
6.493150370E0,3.779876232E-2,4.353523254E-2,3.765106201E-3
6.498169745E0,5.767977238E-2,2.000951767E-2,-2.106475830E-2
6.503189120E0,6.811404228E-2,3.690218925E-2,6.503105164E-3
6.508208495E0,6.066215038E-2,3.098964691E-2,1.956939697E-2
6.513227870E0,6.752693653E-2,4.651284218E-2,2.540683746E-2
6.518247245E0,6.496852636E-2,4.307556152E-2,2.291584015E-2
6.523266620E0,8.029311895E-2,2.917122841E-2,-6.817817688E-3
6.528285995E0,6.691700220E-2,2.023124695E-2,-6.598472595E-3
6.533305370E0,7.244890928E-2,5.584239960E-3,-1.345729828E-2
6.538324745E0,5.996084213E-2,7.700681686E-3,-9.559631348E-3
6.543344120E0,5.220991373E-2,2.033376694E-2,-2.234172821E-2
6.548363495E0,5.286180973E-2,2.686333656E-2,-2.909851074E-2
6.553382870E0,6.433004141E-2,1.418542862E-2,-1.091194153E-2
6.558402245E0,8.067178726E-2,1.929736137E-2,1.183032990E-2
6.563421620E0,6.962549686E-2,3.485727310E-2,2.008914948E-2
6.568440995E0,5.989933014E-2,3.936290741E-2,-2.689361572E-4
6.573460370E0,3.710472584E-2,4.613494873E-2,9.210586548E-3
6.578479745E0,3.343170881E-2,4.211258888E-2,9.104728699E-3
6.583499120E0,2.015948296E-2,3.690958023E-2,1.018810272E-2
6.588518495E0,1.996320486E-2,4.367446899E-2,-5.338668823E-3
6.593537870E0,4.109984636E-2,4.084467888E-2,8.934020996E-3
6.598557245E0,2.407014370E-2,2.383708954E-2,5.426406860E-4
6.603576620E0,1.676642895E-2,3.079891205E-2,5.455017090E-4
6.608595995E0,1.199364662E-2,3.177833557E-2,1.835250854E-2
6.613615370E0,1.079374552E-2,3.163790703E-2,-3.145217896E-3
6.618634745E0,7.160246372E-3,2.685046196E-2,3.729248047E-2
6.623654120E0,2.318978310E-3,1.972866058E-2,3.347396851E-2
6.628673495E0,2.359396219E-2,3.405928612E-2,1.544952393E-2
6.633692870E0,2.924913168E-2,2.821683884E-2,1.185035706E-2
6.638712245E0,4.671579599E-2,9.415626526E-3,4.732131958E-3
6.643731620E0,4.738664627E-2,1.569318771E-2,1.191997528E-2
6.648750995E0,5.626523495E-2,1.364135742E-2,1.668548584E-2
6.653770370E0,6.516456604E-2,1.634430885E-2,1.309394836E-2
6.658789745E0,6.226223707E-2,2.742123604E-2,5.981445312E-3
6.663809120E0,7.011973858E-2,1.463198662E-2,2.028656006E-2
6.668828495E0,7.677364349E-2,1.385498047E-2,2.498149872E-2
6.673847870E0,6.319868565E-2,1.537489891E-2,1.893329620E-2
6.678867245E0,6.157582998E-2,2.400636673E-2,3.440856934E-3
6.683886620E0,4.575425386E-2,1.591634750E-2,-5.995750427E-3
6.688905995E0,3.245526552E-2,8.547306061E-4,-7.026672363E-3
6.693925370E0,2.143442631E-2,4.752635956E-3,-3.324508667E-3
6.698944745E0,1.298898458E-2,-1.619195938E-2,-1.743793488E-2
6.703964120E0,1.755720377E-2,-8.592128754E-3,-1.776695251E-3
6.708983495E0,1.742273569E-2,1.450777054E-3,-1.352596283E-2
6.714002870E0,1.011008024E-2,-1.352095604E-2,-1.211547852E-2
6.719022245E0,2.434778214E-2,-1.531100273E-2,-8.348464966E-3
6.724041620E0,2.540087700E-2,-9.968757629E-3,-6.988525391E-3
6.729060995E0,3.252619505E-2,6.052732468E-3,1.482963562E-3
6.734080370E0,4.193431139E-2,-1.775026321E-3,-4.353523254E-3
6.739099745E0,5.365586281E-2,9.362220764E-3,1.707077026E-3
6.744119120E0,4.615378380E-2,1.683807373E-2,4.161834717E-3
6.749138495E0,3.870052099E-2,1.238346100E-2,2.321720123E-2
6.754157870E0,5.742126703E-2,1.014494896E-2,3.850841522E-2
6.759177245E0,6.758534908E-2,1.865625381E-2,2.282333374E-2
6.764196620E0,6.465715170E-2,1.872324944E-2,1.912117004E-2
6.769215995E0,6.532061100E-2,2.830100060E-2,2.139091492E-2
6.774235370E0,7.064795494E-2,3.065013885E-2,1.533031464E-2
6.779254745E0,6.999528408E-2,3.529047966E-2,-1.087665558E-2
6.784274120E0,5.277717113E-2,1.961851120E-2,1.178169250E-2
6.789293495E0,5.356603861E-2,1.949834824E-2,1.762771606E-2
6.794312870E0,4.127722979E-2,1.580500603E-2,-1.456642151E-2
6.799332245E0,5.177229643E-2,1.338338852E-2,-2.563476562E-3
6.804351620E0,3.379142284E-2,1.211524010E-2,2.198219299E-3
6.809370995E0,2.906274796E-2,2.273058891E-2,-1.445007324E-2
6.814390370E0,3.153926134E-2,2.255535126E-2,-1.288414001E-3
6.819409745E0,1.624494791E-2,5.775928497E-3,-3.669738770E-3
6.824429120E0,2.242678404E-2,3.312492371E-2,-1.432418823E-2
6.829448495E0,2.608221769E-2,2.697801590E-2,-1.895523071E-2
6.834467870E0,2.617895603E-2,2.695059776E-2,-1.164817810E-2
6.839487245E0,2.861106396E-2,2.583765984E-2,-1.387310028E-2
6.844506620E0,4.053741693E-2,2.236437798E-2,2.913475037E-3
6.849525995E0,4.167723656E-2,2.485489845E-2,-1.807212830E-3
6.854545370E0,4.162150621E-2,2.847075462E-2,-5.311012268E-3
6.859564745E0,5.584090948E-2,2.612829208E-2,4.272460938E-3
6.864584120E0,4.507380724E-2,2.971196175E-2,2.326297760E-2
6.869603495E0,5.332797766E-2,3.212642670E-2,2.786540985E-2
6.874622870E0,3.661686182E-2,2.963757515E-2,1.340198517E-2
6.879642245E0,4.266017675E-2,3.082537651E-2,1.213550568E-2
6.884661620E0,3.081101179E-2,2.128148079E-2,2.155590057E-2
6.889680995E0,2.851474285E-2,3.445696831E-2,1.904964447E-2
6.894700370E0,2.394431829E-2,2.965688705E-2,7.049560547E-3
6.899719745E0,1.575189829E-2,2.845883369E-2,3.462791443E-3
6.904739120E0,1.589369774E-2,3.206849098E-2,-7.201194763E-3
6.909758495E0,1.814186573E-3,2.736353874E-2,-1.151084900E-3
6.914777870E0,5.600392818E-3,2.384161949E-2,-1.534080505E-2
6.919797245E0,4.625976086E-3,1.213622093E-2,-1.514530182E-2
6.924816620E0,1.201444864E-2,1.234745979E-2,-7.842063904E-3
6.929835995E0,1.345556974E-2,7.760286331E-3,-1.011180878E-2
6.934855370E0,6.468415260E-3,-7.451534271E-3,4.268646240E-3
6.939874745E0,2.457946539E-2,1.182556152E-3,-1.663208008E-3
6.944894120E0,2.958089113E-2,7.341384888E-3,-5.184173584E-3
6.949913495E0,4.406785965E-2,-5.527973175E-3,3.197669983E-3
6.954932870E0,4.063987732E-2,1.890897751E-3,-5.111694336E-3
6.959952245E0,3.246766329E-2,4.471063614E-3,8.888244629E-4
6.964971620E0,3.851521015E-2,1.086950302E-3,-1.465797424E-3
6.969990995E0,3.748047352E-2,1.664257050E-2,1.398181915E-2
6.975010370E0,3.888338804E-2,1.189827919E-2,1.149368286E-2
6.980029745E0,3.791505098E-2,2.031874657E-2,-4.577636719E-4
6.985049120E0,4.059231281E-2,2.030825615E-2,6.669044495E-3
6.990068495E0,4.197514057E-2,2.148294449E-2,2.323722839E-2
6.995087870E0,3.751248121E-2,1.438879967E-2,2.424144745E-2
7.000107245E0,4.482829571E-2,3.982305527E-3,4.190731049E-2
7.005126620E0,3.534030914E-2,1.967525482E-2,9.551048279E-3
7.010145995E0,4.123806953E-2,2.929854393E-2,4.775047302E-3
7.015165370E0,3.400379419E-2,1.980400085E-2,4.777908325E-3
7.020184745E0,3.497165442E-2,1.160025597E-2,3.608703613E-3
7.025204120E0,3.933745623E-2,1.773500443E-2,-1.177978516E-2
7.030223495E0,3.775966167E-2,2.139449120E-2,-1.162147522E-2
7.035242870E0,4.680567980E-2,2.736020088E-2,2.777099609E-3
7.040262245E0,4.508453608E-2,1.673722267E-2,-1.141643524E-2
7.045281620E0,5.060106516E-2,2.638983727E-2,-2.074813843E-2
7.050300995E0,4.317438602E-2,2.639102936E-2,-2.409362793E-2
7.055320370E0,5.018800497E-2,3.800392151E-3,-1.318073273E-2
7.060339745E0,4.181605577E-2,1.578426361E-2,-1.068496704E-2
7.065359120E0,4.909598827E-2,2.535653114E-2,-1.295185089E-2
7.070381412E0,6.004017591E-2,1.574993134E-2,-1.286029816E-2
7.075401412E0,5.783349276E-2,2.045917511E-2,-1.633358002E-2
7.080420787E0,5.927580595E-2,8.510828018E-3,-4.348754883E-3
7.085440162E0,4.889643192E-2,1.200199127E-2,-1.266956329E-2
7.090459537E0,5.272400379E-2,2.968788147E-2,-3.111839294E-3
7.095478912E0,4.696208239E-2,1.300382614E-2,7.603645325E-3
7.100498287E0,5.663579702E-2,2.613830566E-2,1.585865021E-2
7.105517662E0,4.592478275E-2,1.419353485E-2,3.353977203E-2
7.110537037E0,5.050706863E-2,2.256751060E-2,2.497959137E-2
7.115556412E0,5.857062340E-2,1.432037354E-2,2.838039398E-2
7.120575787E0,4.769396782E-2,1.573610306E-2,3.770351410E-2
7.125595162E0,5.227035284E-2,2.188992500E-2,7.777214050E-3
7.130614537E0,4.139941931E-2,1.263284683E-2,5.420684814E-3
7.135633912E0,4.138034582E-2,3.487825394E-3,1.899719238E-3
7.140653287E0,3.435009718E-2,7.539987564E-3,-1.584053040E-3
7.145672662E0,3.335994482E-2,1.031303406E-2,-5.053520203E-3
7.150692037E0,2.060252428E-2,1.894640923E-2,6.918907166E-3
7.155711412E0,2.577102184E-2,1.558589935E-2,-4.962921143E-3
7.160730787E0,2.016049623E-2,3.716015816E-2,1.649284363E-2
7.165750162E0,1.205635071E-2,2.880358696E-2,1.995563507E-2
7.170769537E0,-2.077877522E-3,2.405619621E-2,3.763961792E-2
7.175788912E0,1.729846001E-2,2.651596069E-2,4.924106598E-2
7.180808287E0,2.513068914E-2,3.705358505E-2,1.555919647E-2
7.185827662E0,5.867928267E-2,1.998090744E-2,-2.862930298E-2
7.190847037E0,6.529915333E-2,3.714823723E-2,-6.662464142E-2
7.195866412E0,3.757882118E-2,3.923416138E-3,-7.709884644E-2
7.200885787E0,-1.180356741E-2,7.486343384E-3,-7.208919525E-2
7.205905162E0,-2.699857950E-2,1.106667519E-2,-8.131599426E-2
7.210924537E0,-2.371007204E-2,-1.844406128E-3,-7.139873505E-2
7.215943912E0,3.496390581E-2,2.457618713E-3,-6.736660004E-2
7.220963287E0,6.065785885E-2,-6.999492645E-3,-3.473091125E-2
7.225982662E0,4.864442348E-2,-6.533384323E-3,-1.649379730E-2
7.231002037E0,1.120275259E-2,1.458573341E-2,-6.573677063E-3
7.236021412E0,-3.297924995E-4,1.795697212E-2,-1.445770264E-2
7.241040787E0,1.655006409E-2,1.415276527E-2,-1.752281189E-2
7.246060162E0,5.470550060E-2,6.665945053E-3,-2.534770966E-2
7.251079537E0,7.373374701E-2,-4.686832428E-3,-3.201675415E-2
7.256098912E0,5.393618345E-2,3.982543945E-3,-2.209758759E-2
7.261118287E0,2.751672268E-2,4.403591156E-4,2.801895142E-2
7.266137662E0,4.069370031E-2,2.488374710E-3,8.118247986E-2
7.271157037E0,5.163639784E-2,2.087497711E-2,1.409482956E-1
7.276176412E0,7.462763786E-2,3.293514252E-2,1.621589661E-1
7.281195787E0,8.941030502E-2,2.948474884E-2,1.511278152E-1
7.286215162E0,9.965538979E-2,5.105376244E-2,1.081314087E-1
7.291234537E0,9.364783764E-2,5.714535713E-2,5.362415314E-2
7.296253912E0,8.435392380E-2,3.836345673E-2,-2.653408051E-2
7.301273287E0,6.812030077E-2,3.314971924E-2,-4.421710968E-2
7.306292662E0,4.145413637E-2,2.690052986E-2,-7.360744476E-2
7.311312037E0,2.775788307E-2,1.017022133E-2,-6.114959717E-2
7.316331412E0,3.658050299E-2,1.496410370E-2,-4.759597778E-2
7.321350787E0,3.930217028E-2,1.734304428E-2,-3.296375275E-2
7.326370162E0,2.768623829E-2,1.025438309E-2,4.117965698E-3
7.331389537E0,1.847976446E-2,1.143670082E-2,2.187824249E-2
7.336408912E0,2.231943607E-2,2.326798439E-2,3.355407715E-2
7.341428287E0,1.552027464E-2,3.137254715E-2,3.917694092E-2
7.346447662E0,2.916276455E-3,3.709244728E-2,2.814197540E-2
7.351467037E0,1.534301043E-2,3.575873375E-2,-2.955436707E-3
7.356486412E0,-5.521714687E-3,3.925442696E-2,-2.190876007E-2
7.361505787E0,4.686832428E-3,4.045081139E-2,-1.694011688E-2
7.366525162E0,1.845288277E-2,5.230331421E-2,4.597663879E-3
7.371544537E0,2.253073454E-2,6.520318985E-2,-1.203727722E-2
7.376563912E0,4.198288918E-2,4.845404625E-2,7.113456726E-3
7.381583287E0,3.996926546E-2,5.423188210E-2,1.419162750E-2
7.386602662E0,5.697333813E-2,3.377962112E-2,-7.295608521E-3
7.391622037E0,6.083685160E-2,3.484296799E-2,-2.149105072E-2
7.396641412E0,4.092085361E-2,2.520871162E-2,-2.250957489E-2
7.401660787E0,3.312104940E-2,3.796815872E-3,-3.895378113E-2
7.406680162E0,3.950589895E-2,-1.032948494E-2,-1.845645905E-2
7.411699537E0,3.498923779E-2,-2.197933197E-2,-1.711750031E-2
7.416718912E0,3.040289879E-2,-4.299283028E-2,-5.091667175E-3
7.421738287E0,4.483026266E-2,-4.126453400E-2,-3.114986420E-2
7.426759954E0,3.877967596E-2,-4.554009438E-2,-4.759788513E-3
7.431778912E0,3.038364649E-2,-3.188633919E-2,-4.684448242E-3
7.436797870E0,1.258891821E-2,-3.150582314E-2,-8.196830750E-3
7.441816829E0,1.151722670E-2,-3.821158409E-2,3.766059875E-3
7.446835787E0,1.527041197E-2,-3.176712990E-2,8.509635925E-3
7.451854745E0,1.662284136E-2,-2.653360367E-2,6.096839905E-3
7.456873704E0,1.439291239E-2,-1.064610481E-2,-3.413200378E-3
7.461892662E0,1.316940784E-2,3.830671310E-3,2.577781677E-3
7.466911620E0,1.300257444E-2,1.936411858E-2,2.590179443E-3
7.471930579E0,2.449059486E-2,2.054429054E-2,7.369041443E-3
7.476949537E0,1.433974504E-2,4.775595665E-2,1.417160034E-3
7.481968495E0,2.922457457E-2,4.520487785E-2,1.691341400E-2
7.486987506E0,4.168546200E-2,4.867029190E-2,4.985809326E-3
7.492006724E0,4.824078083E-2,3.666019440E-2,2.645492554E-3
7.497026151E0,6.943619251E-2,3.897452354E-2,-1.988983154E-2
7.502045735E0,5.147534609E-2,4.606366158E-2,1.686096191E-3
7.507065318E0,6.569892168E-2,3.047060966E-2,2.069282532E-2
7.512084901E0,5.967080593E-2,4.354834557E-2,2.750396729E-3
7.517104485E0,5.760592222E-2,2.708244324E-2,-4.323959351E-3
7.522124068E0,6.641632318E-2,2.039575577E-2,-1.821517944E-3
7.527143651E0,4.070234299E-2,1.385068893E-2,-1.689910889E-3
7.532163235E0,3.286105394E-2,6.158113480E-3,3.193855286E-3
7.537182818E0,1.763010025E-2,-3.864288330E-3,-1.687717438E-2
7.542202401E0,3.392696381E-3,-2.075195312E-3,-2.254962921E-2
7.547221985E0,2.473717928E-2,1.912117004E-3,-2.701663971E-2
7.552241568E0,4.716718197E-2,1.283645630E-2,-2.911186218E-2
7.557261151E0,5.996984243E-2,1.751971245E-2,7.933616638E-3
7.562280735E0,7.154715061E-2,2.909088135E-2,1.613044739E-2
7.567300318E0,6.667971611E-2,3.203201294E-2,3.487396240E-2
7.572319901E0,5.483943224E-2,4.318737984E-2,2.969646454E-2
7.577339485E0,2.897638083E-2,5.059885979E-2,2.334880829E-2
7.582359068E0,4.254788160E-2,4.838943481E-2,9.913444519E-3
7.587378651E0,4.773455858E-2,3.569221497E-2,-9.975433350E-4
7.592398235E0,4.201912880E-2,3.729891777E-2,-3.508567810E-3
7.597417818E0,3.384429216E-2,3.309488297E-2,-1.545524597E-2
7.602437401E0,3.761178255E-2,4.564809799E-2,-3.083896637E-2
7.607456985E0,2.813911438E-2,5.341815948E-2,-2.114295959E-2
7.612476568E0,3.423756361E-2,3.392362595E-2,3.662109375E-4
7.617496151E0,2.710670233E-2,3.477096558E-2,9.830474854E-3
7.622515735E0,4.012936354E-2,2.853035927E-2,3.798484802E-3
7.627535318E0,3.404444456E-2,1.647496223E-2,1.207828522E-2
7.632554901E0,5.040270090E-2,1.878499985E-2,2.030277252E-2
7.637574433E0,4.763340950E-2,1.168107986E-2,7.114410400E-3
7.642593808E0,4.736506939E-2,3.082036972E-2,-7.143020630E-3
7.647613183E0,4.821264744E-2,3.085756302E-2,-3.458023071E-3
7.652632558E0,3.844726086E-2,2.517867088E-2,2.615928650E-3
7.657651933E0,3.473389149E-2,3.384256363E-2,-1.034545898E-2
7.662671308E0,3.704673052E-2,3.062891960E-2,7.678031921E-3
7.667690683E0,1.671749353E-2,3.690314293E-2,2.435970306E-2
7.672710058E0,3.764271736E-3,1.708984375E-2,5.559921265E-4
7.677729433E0,6.367266178E-3,1.393508911E-2,1.134490967E-2
7.682748808E0,2.683162689E-2,1.432991028E-2,-5.226135254E-4
7.687768183E0,2.456909418E-2,5.151033401E-3,1.618194580E-2
7.692787558E0,1.878273487E-2,3.099918365E-3,1.254844666E-2
7.697806933E0,2.501165867E-2,-2.372264862E-4,1.603698730E-2
7.702826308E0,3.235828876E-2,-2.363920212E-3,4.063606262E-3
7.707845683E0,3.486979008E-2,1.513719559E-3,1.831912994E-2
7.712865058E0,3.497630358E-2,5.308866501E-3,-1.029109955E-2
7.717884433E0,2.794462442E-2,-3.888130188E-3,-7.773399353E-3
7.722903808E0,3.629881144E-2,-4.706144333E-3,-2.664089203E-2
7.727923183E0,5.287557840E-2,-1.010799408E-2,-2.577781677E-3
7.732942558E0,2.656012774E-2,-3.610849380E-3,3.474235535E-3
7.737961933E0,2.412647009E-2,4.854202271E-4,8.300781250E-3
7.742981308E0,3.474116325E-2,-2.693891525E-3,1.424884796E-2
7.748000683E0,2.494663000E-2,1.909565926E-2,3.083992004E-2
7.753020058E0,3.539812565E-2,3.905057907E-3,2.592945099E-2
7.758039433E0,5.284434557E-2,1.245546341E-2,4.002571106E-2
7.763058808E0,4.056167603E-2,1.385188103E-2,3.620052338E-2
7.768078183E0,3.545242548E-2,1.751208305E-2,2.882766724E-2
7.773097558E0,4.833918810E-2,1.756620407E-2,1.556777954E-2
7.778116933E0,4.806697369E-2,2.343988419E-2,1.307582855E-2
7.783136308E0,3.710699081E-2,9.018182755E-3,4.653930664E-3
7.788155683E0,5.125403404E-2,1.367187500E-2,3.411293030E-3
7.793175058E0,3.802508116E-2,5.144834518E-3,2.156257629E-3
7.798194433E0,4.044854641E-2,7.330417633E-3,-1.334857941E-2
7.803213808E0,3.211003542E-2,2.493190765E-2,2.143859863E-3
7.808233183E0,2.627980709E-2,4.319667816E-3,-5.069732666E-3
7.813252558E0,2.534139156E-2,1.120972633E-2,-1.815891266E-2
7.818271933E0,3.629571199E-2,1.456713676E-2,-2.280998230E-2
7.823291308E0,3.397530317E-2,2.276325226E-2,-1.314163208E-2
7.828310683E0,3.401142359E-2,2.264142036E-2,-3.796386719E-2
7.833330058E0,3.756469488E-2,2.023386955E-2,-1.982116699E-2
7.838349433E0,3.987967968E-2,1.904392242E-2,-7.761955261E-3
7.843368808E0,3.613138199E-2,1.084423065E-2,-2.895355225E-3
7.848388183E0,4.795539379E-2,2.169251442E-2,3.108024597E-3
7.853407558E0,3.484481573E-2,2.055811882E-2,1.854801178E-2
7.858426933E0,3.848689795E-2,2.887582779E-2,3.621959686E-2
7.863446308E0,3.987854719E-2,3.117966652E-2,3.117752075E-2
7.868465683E0,3.891563416E-2,3.105330467E-2,1.548385620E-2
7.873485058E0,4.747819901E-2,3.925585747E-2,7.045745850E-3
7.878504433E0,3.692960739E-2,4.032564163E-2,9.377479553E-3
7.883523808E0,3.362584114E-2,4.022693634E-2,-8.486747742E-3
7.888543183E0,2.439445257E-2,3.543281555E-2,3.489494324E-3
7.893562558E0,2.117353678E-2,3.545880318E-2,8.250236511E-3
7.898581933E0,9.608149529E-3,2.727007866E-2,-9.558677673E-3
7.903601308E0,6.349325180E-3,1.677918434E-2,-7.030487061E-3
7.908620683E0,2.442628145E-2,2.291703224E-2,-2.115821838E-2
7.913640058E0,2.105760574E-2,-1.811504364E-3,4.014968872E-3
7.918659433E0,2.483588457E-2,-9.724617004E-3,-3.076553345E-3
7.923678808E0,3.562921286E-2,8.570432663E-3,2.959251404E-3
7.928698183E0,2.857071161E-2,5.564689636E-4,1.249504089E-2
7.933717558E0,3.819662333E-2,-9.814023972E-3,4.133224487E-3
7.938736933E0,3.229016066E-2,-7.063865662E-3,2.195358276E-2
7.943756308E0,3.361719847E-2,-1.382470131E-2,1.588058472E-2
7.948775683E0,3.727227449E-2,-2.721309662E-3,6.299018860E-3
7.953795058E0,1.831030846E-2,4.624843597E-3,7.459640503E-3
7.958814433E0,2.200794220E-2,9.598493576E-3,2.406024933E-2
7.963833808E0,1.729846001E-2,1.332998276E-2,3.723144531E-3
7.968853183E0,2.336901426E-2,1.949501038E-2,-6.929397583E-3
7.973872558E0,2.458864450E-2,1.608943939E-2,-5.624771118E-3
7.978891933E0,3.757470846E-2,7.974863052E-3,-1.500701904E-2
7.983911308E0,3.509896994E-2,2.368378639E-2,-1.244068146E-2
7.988930683E0,3.618085384E-2,1.903963089E-2,-6.342887878E-3
7.993950058E0,4.079949856E-2,2.624106407E-2,-7.432937622E-3
7.998969433E0,5.136418343E-2,2.737975121E-2,-8.531570435E-3
8.003988808E0,4.995685816E-2,2.017354965E-2,-3.690719604E-3
8.009008183E0,4.873216152E-2,9.366035461E-3,-1.435661316E-2
8.014027558E0,5.942016840E-2,1.883125305E-2,-2.730846405E-2
8.019046933E0,5.824846029E-2,1.754879951E-2,-2.166748047E-3
8.024066308E0,4.279214144E-2,1.385903358E-2,-1.285552979E-2
8.029085683E0,5.966550112E-2,4.317522049E-3,-1.632976532E-2
8.034105058E0,4.670542479E-2,-2.723217010E-3,2.792358398E-3
8.039124433E0,5.515044928E-2,-2.262592316E-4,8.696556091E-3
8.044143808E0,5.643647909E-2,9.463548660E-3,1.931953430E-2
8.049163183E0,5.877190828E-2,7.290363312E-3,2.038478851E-2
8.054182558E0,3.852474689E-2,3.404617310E-4,2.974033356E-2
8.059201933E0,5.291187763E-2,2.197194099E-2,2.715301514E-2
8.064221308E0,5.047833920E-2,3.037261963E-2,4.411697388E-3
8.069240683E0,6.231743097E-2,3.507709503E-2,7.962226868E-3
8.074260058E0,4.672366381E-2,1.483058929E-2,1.742362976E-2
8.079279433E0,4.894375801E-2,2.811717987E-2,1.140975952E-2
8.084298808E0,3.923881054E-2,3.894472122E-2,-4.816055298E-4
8.089318183E0,4.264491796E-2,4.617094994E-2,-3.950119019E-3
8.094337558E0,3.173303604E-2,3.800439835E-2,-9.737014771E-3
8.099356933E0,1.837968826E-2,5.249786377E-2,-8.337020874E-3
8.104376308E0,5.162000656E-3,4.320716858E-2,-8.119583130E-3
8.109395683E0,5.140185356E-3,3.643536568E-2,1.110458374E-2
8.114415058E0,6.212949753E-3,2.723670006E-2,3.371047974E-2
8.119434433E0,1.214241982E-2,3.898382187E-3,5.494022369E-2
8.124453808E0,1.860761642E-2,1.858425140E-2,3.199958801E-2
8.129473183E0,5.330455303E-2,9.085416794E-3,-3.795623779E-4
8.134492558E0,6.590229273E-2,3.757476807E-4,-3.739070892E-2
8.139511933E0,3.938502073E-2,-7.493257523E-3,-5.401706696E-2
8.144531308E0,1.973766088E-2,-7.365703583E-3,-4.444694519E-2
8.149554120E0,-3.241896629E-4,3.334045410E-3,-3.257465363E-2
8.154571829E0,1.831519604E-2,-5.030155182E-3,-3.856754303E-2
8.159589537E0,6.391656399E-2,1.091957092E-4,-5.034637451E-2
8.164607349E0,8.757627010E-2,-2.987384796E-4,-5.123424530E-2
8.169625370E0,9.180063009E-2,-1.459836960E-3,-8.049297333E-2
8.174643599E0,3.967159986E-2,8.440494537E-3,-7.140350342E-2
8.179662037E0,5.153059959E-3,3.023386002E-3,-4.093933105E-2
8.184680683E0,4.541277885E-3,4.753112793E-3,-3.443050385E-2
8.189699537E0,2.252829075E-2,-3.128290176E-3,1.594924927E-2
8.194718599E0,4.252493382E-2,-1.365137100E-2,7.677078247E-3
8.199737870E0,7.192015648E-2,-5.339145660E-3,1.366043091E-2
8.204757349E0,4.919028282E-2,2.732276917E-3,6.226730347E-2
8.209777037E0,4.603421688E-2,8.145570755E-3,1.092119217E-1
8.214796933E0,3.375297785E-2,1.932311058E-2,1.355342865E-1
8.219817037E0,3.612607718E-2,1.965093613E-2,1.307363510E-1
8.224837349E0,2.344226837E-2,3.427886963E-2,1.247797012E-1
8.229857870E0,2.193236351E-2,5.117225647E-2,6.424713135E-2
8.234878495E0,2.448302507E-2,4.447269440E-2,1.612758636E-2
8.239899120E0,2.492952347E-2,4.869675636E-2,-6.599235535E-2
8.244919745E0,2.207189798E-2,2.688169479E-2,-7.500362396E-2
8.249940370E0,2.654361725E-2,2.678918839E-2,-9.103393555E-2
8.254960579E0,2.747130394E-2,2.081036568E-2,-7.961750031E-2
8.259980162E0,2.955472469E-2,1.967167854E-2,-3.504657745E-2
8.264999537E0,4.583293200E-2,2.555823326E-2,8.211135864E-4
8.270018912E0,4.432010651E-2,1.477909088E-2,3.044509888E-2
8.275038287E0,5.476522446E-2,2.312779427E-2,3.608608246E-2
8.280057662E0,4.125201702E-2,3.377723694E-2,4.643535614E-2
8.285077037E0,4.803836346E-2,3.374457359E-2,4.247379303E-2
8.290096412E0,4.283529520E-2,4.571390152E-2,2.433395386E-2
8.295115787E0,2.450382710E-2,6.249117851E-2,4.013061523E-3
8.300135162E0,1.569020748E-2,2.940177917E-2,-3.040313721E-3
8.305154537E0,9.129822254E-3,4.647517204E-2,-1.120471954E-2
8.310173912E0,3.100860119E-2,5.147981644E-2,1.036930084E-2
8.315193287E0,2.173715830E-2,3.745150566E-2,3.533363342E-2
8.320212662E0,2.196675539E-2,3.409790993E-2,2.682495117E-2
8.325232037E0,2.211934328E-2,3.537821770E-2,4.113197327E-3
8.330251412E0,1.524156332E-2,2.951693535E-2,-6.545066833E-3
8.335270787E0,2.387434244E-2,3.320956230E-2,-1.681327820E-3
8.340290162E0,2.889621258E-2,2.858591080E-2,-2.178382874E-2
8.345309537E0,2.439677715E-2,1.463532448E-2,-2.269554138E-2
8.350328912E0,5.442804098E-2,-3.569126129E-4,-2.122306824E-2
8.355348287E0,4.979896545E-2,-2.233648300E-2,-1.145076752E-2
8.360367662E0,4.640650749E-2,-2.047038078E-2,-2.314758301E-2
8.365387037E0,5.016589165E-2,-3.525495529E-2,-1.338195801E-2
8.370406412E0,5.508905649E-2,-4.635953903E-2,-1.200866699E-2
8.375425787E0,4.805785418E-2,-5.849313736E-2,3.615379333E-3
8.380445162E0,4.689097404E-2,-4.684734344E-2,1.672935486E-2
8.385464537E0,4.699027538E-2,-4.481959343E-2,-4.704475403E-3
8.390483912E0,2.789354324E-2,-3.446674347E-2,4.926681519E-3
8.395503287E0,6.426393986E-3,-3.126311302E-2,-5.681037903E-3
8.400522662E0,1.949441433E-2,-2.688193321E-2,-4.320144653E-3
8.405542037E0,-2.136170864E-3,-1.413464546E-2,4.180908203E-3
8.410561412E0,-5.809903145E-3,3.209352493E-3,1.022911072E-2
8.415580787E0,3.588736057E-3,8.552312851E-3,1.979351044E-2
8.420600162E0,8.127331734E-3,2.325344086E-2,2.807140350E-2
8.425619537E0,1.505416632E-2,2.710437775E-2,3.033161163E-2
8.430638912E0,2.083963156E-2,3.321504593E-2,7.617950439E-3
8.435658287E0,2.434426546E-2,2.850532532E-2,-7.811546326E-3
8.440677662E0,2.563589811E-2,2.968192101E-2,-2.789402008E-2
8.445697037E0,3.047430515E-2,4.024624825E-2,-1.340389252E-2
8.450716412E0,3.874289989E-2,3.880953789E-2,-2.601623535E-3
8.455735787E0,3.629165888E-2,4.116725922E-2,1.038551331E-3
8.460755162E0,3.991961479E-2,4.614830017E-2,-5.980491638E-3
8.465774537E0,3.623330593E-2,3.118705750E-2,-2.355194092E-2
8.470793912E0,3.713965416E-2,2.129983902E-2,-2.073764801E-2
8.475813287E0,4.150021076E-2,1.744675636E-2,-2.980995178E-2
8.480832662E0,4.337406158E-2,3.136897087E-2,-1.507186890E-2
8.485852037E0,5.476146936E-2,2.254223824E-2,7.831573486E-3
8.490871412E0,7.698237896E-2,6.384849548E-3,2.690505981E-2
8.495890787E0,8.142894506E-2,3.148078918E-3,5.761241913E-2
8.500910162E0,8.022904396E-2,6.898403168E-3,6.426525116E-2
8.505933079E0,8.386635780E-2,2.701210976E-2,4.943752289E-2
8.510949954E0,6.620097160E-2,3.368973732E-2,3.824138641E-2
8.515966829E0,6.289321184E-2,3.782391548E-2,-9.687423706E-3
8.520983704E0,4.507648945E-2,4.421854019E-2,-2.160453796E-2
8.526000787E0,4.508829117E-2,5.290865898E-2,-3.460693359E-2
8.531018079E0,4.263013601E-2,5.094528198E-2,-3.441333771E-2
8.536035787E0,3.300118446E-2,5.268192291E-2,-2.825260162E-2
8.541053912E0,1.635515690E-2,5.921626091E-2,-2.331829071E-2
8.546072454E0,-7.353007793E-3,5.985832214E-2,-1.246166229E-2
8.551091412E0,1.199543476E-3,5.358433723E-2,-1.707935333E-2
8.556110787E0,-1.539927721E-2,4.274487495E-2,-6.186485291E-3
8.561130579E0,-6.974995136E-3,3.102588654E-2,-3.643035889E-3
8.566150787E0,1.320344210E-2,2.540159225E-2,3.645896912E-3
8.571171412E0,2.352827787E-2,7.956743240E-3,2.002716064E-4
8.576192245E0,3.014701605E-2,8.509635925E-3,1.698112488E-2
8.581213287E0,3.789675236E-2,-3.979206085E-4,2.294635773E-2
8.586234537E0,4.670459032E-2,-2.231216431E-2,2.055072784E-2
8.591255787E0,5.551123619E-2,-1.204943657E-2,3.477668762E-2
8.596277037E0,5.731439590E-2,-2.080202103E-2,3.345489502E-2
8.601298287E0,4.607450962E-2,-1.768231392E-2,3.331184387E-2
8.606318495E0,6.828594208E-2,-1.114344597E-2,2.838993073E-2
8.611337870E0,5.354857445E-2,-3.494739532E-3,1.400375366E-2
8.616357245E0,5.329483747E-2,-6.612539291E-3,1.159763336E-2
8.621376620E0,5.188745260E-2,-7.290124893E-3,5.657196045E-3
8.626395995E0,3.373038769E-2,-4.493474960E-3,-6.182670593E-3
8.631415370E0,5.379265547E-2,1.844596863E-2,-1.436996460E-2
8.636434745E0,4.513537884E-2,2.340388298E-2,-9.423255920E-3
8.641454120E0,3.411626816E-2,1.647233963E-2,-2.134323120E-3
8.646473495E0,1.477557421E-2,6.046295166E-3,-2.021789551E-3
8.651492870E0,2.892148495E-2,7.577657700E-3,-1.734733582E-2
8.656512245E0,1.794081926E-2,6.784439087E-3,-9.969711304E-3
8.661531620E0,2.731388807E-2,2.415895462E-3,3.270149231E-3
8.666550995E0,1.649898291E-2,4.065275192E-3,8.098602295E-3
8.671570370E0,4.013615847E-2,-1.390457153E-3,-8.471488953E-3
8.676589745E0,1.970064640E-2,-8.280277252E-4,1.427745819E-2
8.681609120E0,2.924364805E-2,4.412651062E-3,2.612972260E-2
8.686628495E0,4.469925165E-2,1.228332520E-3,1.649570465E-2
8.691647870E0,3.497833014E-2,4.046440125E-3,1.526737213E-2
8.696667245E0,3.954970837E-2,9.149789810E-3,2.709388733E-2
8.701686620E0,5.594944954E-2,1.066708565E-2,-3.480911255E-4
8.706705995E0,7.804572582E-2,2.159547806E-2,-1.332664490E-2
8.711725370E0,6.901621819E-2,1.451468468E-2,-1.316070557E-2
8.716744745E0,6.720536947E-2,2.286720276E-2,-1.063442230E-2
8.721764120E0,7.734435797E-2,2.045321465E-2,-1.763534546E-2
8.726783495E0,6.845170259E-2,2.032184601E-2,-2.341938019E-2
8.731802870E0,6.209427118E-2,2.136230469E-2,-2.204132080E-2
8.736822245E0,4.405426979E-2,1.049971581E-2,-1.000308990E-2
8.741841620E0,4.515659809E-2,1.151895523E-2,-1.351642609E-2
8.746860995E0,3.674978018E-2,1.255416870E-2,-1.699447632E-2
8.751880370E0,1.647430658E-2,1.596999168E-2,-6.191253662E-3
8.756899745E0,1.894867420E-2,2.171874046E-2,-7.352828979E-3
8.761919120E0,3.408133984E-3,1.437473297E-2,-1.368522644E-3
8.766938495E0,1.534104347E-2,1.784348488E-2,-1.560211182E-2
8.771957870E0,2.961719036E-2,2.726173401E-2,-3.327274323E-2
8.776977245E0,3.186988831E-2,1.761460304E-2,-2.348709106E-2
8.781996620E0,3.537088633E-2,2.234220505E-2,-2.327537537E-2
8.787015995E0,2.824145555E-2,3.066611290E-2,-4.057884216E-3
8.792035370E0,1.405465603E-2,1.983952522E-2,-1.641273499E-3
8.797054745E0,2.976775169E-2,2.812647820E-2,5.504608154E-3
8.802074120E0,3.942096233E-2,2.924513817E-2,1.140880585E-2
8.807093495E0,2.043849230E-2,9.027481079E-3,1.844406128E-3
8.812112870E0,2.652138472E-2,2.103137970E-2,-4.077911377E-3
8.817132245E0,2.772229910E-2,3.177499771E-2,3.120422363E-3
8.822151620E0,3.248119354E-2,3.423166275E-2,-9.898185730E-3
8.827170995E0,3.599005938E-2,1.769042015E-2,5.688667297E-3
8.832190370E0,2.641886473E-2,1.435375214E-2,6.900787354E-3
8.837209745E0,6.158471107E-3,1.222968102E-2,1.048374176E-2
8.842229120E0,2.408790588E-2,-1.765251160E-3,-1.327514648E-2
8.847248495E0,2.161365747E-2,9.007453918E-4,-4.768371582E-5
8.852267870E0,2.038431168E-2,-7.149219513E-3,-1.067733765E-2
8.857287245E0,2.273339033E-2,-7.959842682E-3,-6.961822510E-3
8.862306620E0,4.168570042E-2,-1.122617722E-2,-4.485130310E-3
8.867325995E0,3.328353167E-2,-1.481771469E-3,-1.273727417E-2
8.872345370E0,3.921645880E-2,1.057982445E-2,-1.260662079E-2
8.877364745E0,2.856510878E-2,-8.322000504E-3,-4.171371460E-3
8.882384120E0,3.346812725E-2,-8.026361465E-3,-2.920150757E-3
8.887403495E0,2.759844065E-2,-8.906602859E-3,-1.591968536E-2
8.892422870E0,3.362059593E-2,9.238719940E-3,-3.108978271E-4
8.897442245E0,2.521717548E-2,2.315282822E-3,-2.555847168E-4
8.902461620E0,1.935577393E-2,-5.760431290E-3,4.535675049E-3
8.907480995E0,3.247761726E-2,3.972053528E-3,9.277343750E-3
8.912500370E0,3.824931383E-2,2.314829826E-2,-2.536773682E-4
8.917519745E0,3.807836771E-2,1.244926453E-2,9.670257568E-4
8.922539120E0,3.186494112E-2,1.142644882E-2,-1.678752899E-2
8.927558495E0,4.941064119E-2,2.097058296E-2,-2.368927002E-3
8.932577870E0,3.821170330E-2,2.218699455E-2,-7.042884827E-3
8.937597245E0,3.294777870E-2,4.233193398E-2,-1.524925232E-2
8.942616620E0,4.556214809E-2,4.456949234E-2,-6.751060486E-3
8.947635995E0,5.577498674E-2,4.079580307E-2,2.844810486E-3
8.952655370E0,4.471212626E-2,3.222894669E-2,4.606246948E-4
8.957674745E0,4.818993807E-2,2.129578590E-2,-6.678581238E-3
8.962694120E0,5.064493418E-2,3.188633919E-2,-4.258155823E-3
8.967713495E0,5.075681210E-2,3.165054321E-2,-1.018333435E-2
8.972732870E0,4.839289188E-2,1.608276367E-2,-1.246929169E-2
8.977752245E0,4.718327522E-2,1.141095161E-2,-1.654624939E-3
8.982771620E0,4.589372873E-2,1.391911507E-2,1.382827759E-2
8.987790995E0,4.689061642E-2,2.831673622E-2,3.275680542E-2
8.992810370E0,5.609732866E-2,2.718615532E-2,1.592731476E-2
8.997829745E0,4.616314173E-2,7.098197937E-3,1.230716705E-2
9.002849120E0,4.822897911E-2,1.814961433E-2,1.111125946E-2
9.007868495E0,4.792791605E-2,1.255559921E-2,1.943683624E-2
9.012887870E0,3.809726238E-2,8.196115494E-3,1.582527161E-2
9.017907245E0,3.791487217E-2,1.928186417E-2,1.548767090E-3
9.022926620E0,4.012686014E-2,2.328062057E-2,9.976387024E-3
9.027945995E0,3.290551901E-2,3.544354439E-2,1.355361938E-2
9.032965370E0,2.092343569E-2,3.438091278E-2,1.471614838E-2
9.037984745E0,1.486861706E-2,3.923892975E-2,1.230907440E-2
9.043004120E0,8.842706680E-3,3.916645050E-2,1.819992065E-2
9.048023495E0,5.190491676E-3,5.806279182E-2,3.472232819E-2
9.053042870E0,-9.137034416E-3,3.637385368E-2,4.278373718E-2
9.058062245E0,1.253682375E-2,3.627848625E-2,2.821445465E-2
9.063081620E0,3.486758471E-2,4.549074173E-2,2.990722656E-3
9.068100995E0,5.664485693E-2,4.258513451E-2,-4.585552216E-2
9.073120370E0,5.489701033E-2,3.212857246E-2,-6.355953217E-2
9.078139745E0,1.741331816E-2,4.784822464E-3,-5.269813538E-2
9.083159120E0,-3.736317158E-3,1.904678345E-2,-2.412319183E-2
9.088178495E0,-3.487467766E-4,-3.508567810E-3,-4.202747345E-2
9.093197870E0,4.526871443E-2,-1.254057884E-2,-4.663085938E-2
9.098217245E0,7.723689079E-2,-2.699685097E-2,-6.414031982E-2
9.103236620E0,9.089457989E-2,-3.735494614E-2,-7.664394379E-2
9.108255995E0,5.757147074E-2,-2.470946312E-2,-5.924701691E-2
9.113275370E0,1.313447952E-2,-1.906323433E-2,-3.359031677E-2
9.118294745E0,-2.846717834E-3,-1.805043221E-2,-2.589130402E-2
9.123314120E0,3.517389297E-3,-1.720762253E-2,7.843971252E-3
9.128333495E0,2.987986803E-2,-2.009916306E-2,-1.467704773E-3
9.133352870E0,3.490734100E-2,-6.622552872E-3,3.462791443E-3
9.138372245E0,4.136794806E-2,6.414413452E-3,2.844047546E-2
9.143391620E0,1.126170158E-2,6.083726883E-3,4.958438873E-2
9.148410995E0,1.837706566E-2,6.744623184E-3,1.049222946E-1
9.153430370E0,2.569442987E-2,2.382493019E-2,1.098785400E-1
9.158449745E0,3.911966085E-2,4.298973083E-2,1.004991531E-1
9.163469120E0,4.797321558E-2,5.610895157E-2,9.238052368E-2
9.168488495E0,4.876595736E-2,4.549455643E-2,6.653022766E-2
9.173507870E0,6.300264597E-2,4.937219620E-2,7.666587830E-3
9.178527245E0,8.451873064E-2,3.559064865E-2,-1.625347137E-2
9.183546620E0,7.756149769E-2,2.683830261E-2,-4.113674164E-2
9.188565995E0,6.472742558E-2,2.064418793E-2,-3.373241425E-2
9.193585370E0,7.457900047E-2,1.337409019E-2,-1.213169098E-2
9.198604745E0,6.300973892E-2,2.636432648E-3,-2.576828003E-3
9.203624120E0,5.742263794E-2,2.570152283E-4,2.469730377E-2
9.208643495E0,5.176198483E-2,1.330304146E-2,2.681732178E-2
9.213662870E0,5.802863836E-2,1.669478416E-2,4.196548462E-2
9.218682245E0,5.585235357E-2,1.891469955E-2,3.563499451E-2
9.223705422E0,5.004239082E-2,3.788447380E-2,2.108669281E-2
9.228723131E0,4.321134090E-2,3.179955482E-2,1.259613037E-2
9.233740839E0,2.689915895E-2,4.247307777E-2,6.573677063E-3
9.238758599E0,2.285301685E-3,4.612851143E-2,-2.906799316E-3
9.243776568E0,1.236182451E-2,4.614686966E-2,5.484580994E-3
9.248794745E0,6.843626499E-3,4.614806175E-2,9.057044983E-3
9.253813131E0,2.622008324E-3,7.345318794E-2,1.259708405E-2
9.258831724E0,1.277285814E-2,7.681465149E-2,1.373291016E-2
9.263850526E0,-8.290410042E-4,6.816887856E-2,1.245689392E-2
9.268869537E0,2.248036861E-2,5.000829697E-2,-1.138687134E-2
9.273888756E0,4.925727844E-4,4.741430283E-2,-2.078914642E-2
9.278908183E0,2.857851982E-2,1.755237579E-2,-3.486061096E-2
9.283927818E0,3.027260303E-2,1.649284363E-2,-2.980327606E-2
9.288947662E0,3.190958500E-2,1.217603683E-3,-1.053524017E-2
9.293967714E0,4.428148270E-2,-1.503157616E-2,-2.108955383E-2
9.298987974E0,4.695653915E-2,-2.873849869E-2,-1.254844666E-2
9.304008443E0,4.847294092E-2,-3.391981125E-2,-2.542686462E-2
9.309029068E0,2.856832743E-2,-5.097126961E-2,-2.158546448E-2
9.314049693E0,3.374654055E-2,-4.531264305E-2,-1.539897919E-2
9.319070318E0,2.925848961E-2,-3.964090347E-2,-9.241104126E-3
9.324090943E0,3.060984612E-2,-3.642702103E-2,-1.263141632E-2
9.329111308E0,1.522386074E-2,-3.799581528E-2,-1.005363464E-2
9.334130839E0,1.297283173E-2,-3.959918022E-2,6.740570068E-3
9.339150214E0,1.201689243E-3,-2.450370789E-2,4.419326782E-3
9.344169589E0,3.607034683E-3,5.831003189E-3,3.060150146E-2
9.349188964E0,-7.307529449E-5,1.090669632E-2,3.518772125E-2
9.354208339E0,1.634144783E-2,5.229711533E-3,2.311706543E-2
9.359227714E0,-6.549119949E-3,2.334094048E-2,2.301692963E-2
9.364247089E0,7.589101791E-3,3.773021698E-2,3.003597260E-2
9.369266464E0,7.407128811E-3,2.115178108E-2,3.759384155E-3
9.374285839E0,3.004735708E-2,2.851033211E-2,-2.705097198E-2
9.379305214E0,2.665954828E-2,2.153015137E-2,-3.032302856E-2
9.384324589E0,3.521692753E-2,2.291345596E-2,4.414558411E-3
9.389343964E0,2.132731676E-2,3.136134148E-2,3.290557861E-2
9.394363339E0,4.682809114E-2,2.799034119E-2,-7.671356201E-3
9.399382714E0,6.413131952E-2,3.439378738E-2,4.363059998E-3
9.404402089E0,6.706434488E-2,1.232767105E-2,8.001327515E-3
9.409421464E0,5.914419889E-2,4.850864410E-3,-1.208591461E-2
9.414440839E0,5.445295572E-2,-1.368284225E-3,-2.129459381E-2
9.419460214E0,5.905884504E-2,1.961970329E-2,-1.620197296E-2
9.424479589E0,5.058276653E-2,1.412963867E-2,-1.000785828E-2
9.429498964E0,7.542103529E-2,2.633500099E-2,-1.221370697E-2
9.434518339E0,6.805443764E-2,8.580684662E-3,1.048374176E-2
9.439537714E0,8.455818892E-2,1.326370239E-2,4.479789734E-2
9.444557089E0,7.248038054E-2,3.672671318E-2,3.723144531E-2
9.449576464E0,4.160100222E-2,4.789519310E-2,5.103874207E-2
9.454595839E0,4.062885046E-2,4.577183723E-2,3.383445740E-2
9.459615214E0,2.419012785E-2,4.841685295E-2,2.271175385E-2
9.464634589E0,3.038251400E-2,4.399704933E-2,4.583358765E-3
9.469653964E0,2.344417572E-2,3.136229515E-2,-1.694297791E-2
9.474673339E0,2.364325523E-2,3.447675705E-2,-6.184577942E-3
9.479692714E0,2.265566587E-2,2.453589439E-2,-1.806545258E-2
9.484712089E0,6.266117096E-3,3.372192383E-2,-1.583099365E-4
9.489731464E0,3.153914213E-2,3.467774391E-2,5.765914917E-3
9.494750839E0,1.489400864E-2,3.912186623E-2,6.887435913E-3
9.499770214E0,2.211350203E-2,4.230594635E-2,1.036643982E-2
9.504789589E0,3.399300575E-2,3.725457191E-2,-1.591682434E-3
9.509808964E0,3.733301163E-2,2.522611618E-2,-1.545906067E-3
9.514828339E0,4.061257839E-2,2.518630028E-2,-9.805679321E-3
9.519847714E0,5.689013004E-2,2.886509895E-2,5.784988403E-3
9.524867089E0,6.002742052E-2,3.137755394E-2,1.650714874E-2
9.529886464E0,6.201493740E-2,3.866839409E-2,1.646232605E-2
9.534905839E0,7.113897800E-2,3.053402901E-2,2.236747742E-2
9.539925214E0,5.637818575E-2,2.592635155E-2,3.413867950E-2
9.544944589E0,5.244302750E-2,1.778459549E-2,2.681446075E-2
9.549963964E0,4.493242502E-2,1.911664009E-2,3.259277344E-2
9.554983339E0,3.625035286E-2,2.163481712E-2,1.696014404E-2
9.560002714E0,3.950423002E-2,7.466554642E-3,1.569175720E-2
9.565022089E0,3.914046288E-2,-1.832962036E-3,1.681137085E-2
9.570041464E0,2.815485001E-2,-5.063772202E-3,-2.250671387E-3
9.575060839E0,3.867810965E-2,2.312660217E-5,1.393318176E-3
9.580080214E0,4.334092140E-2,-1.957416534E-3,-4.476547241E-3
9.585099589E0,2.666896582E-2,7.913112640E-4,-3.187179565E-3
9.590118964E0,3.623878956E-2,-7.148504257E-3,-1.614952087E-2
9.595138339E0,2.566403151E-2,-1.381874084E-2,-2.069759369E-2
9.600157714E0,2.941030264E-2,-1.337409019E-2,8.955001831E-4
9.605177089E0,2.241450548E-2,-4.630088806E-3,-3.807067871E-3
9.610196464E0,2.264672518E-2,4.692077637E-4,-3.727912903E-3
9.615215839E0,2.268284559E-2,-8.818387985E-3,1.414585114E-2
9.620235214E0,3.332370520E-2,1.058816910E-2,1.172351837E-2
9.625254589E0,3.074520826E-2,9.561061859E-3,2.117538452E-2
9.630273964E0,3.520566225E-2,1.091885567E-2,3.252983093E-3
9.635293339E0,3.723686934E-2,2.654433250E-2,6.856918335E-3
9.640312714E0,3.099495173E-2,1.112437248E-2,6.853103638E-3
9.645332089E0,2.592754364E-2,2.786564827E-2,-1.459121704E-3
9.650351464E0,2.698850632E-2,1.950573921E-2,3.338813782E-3
9.655370839E0,3.648126125E-2,2.072310448E-2,-1.921367645E-2
9.660390214E0,5.181020498E-2,4.153490067E-3,-9.516716003E-3
9.665409589E0,6.590718031E-2,1.864194870E-3,-1.536273956E-2
9.670428964E0,6.463259459E-2,7.908344269E-4,-1.998138428E-2
9.675448339E0,6.217557192E-2,1.145648956E-2,3.897666931E-3
9.680467714E0,5.260360241E-2,4.290103912E-3,8.598327637E-3
9.685487089E0,5.383735895E-2,3.091096878E-3,4.940986633E-3
9.690506464E0,4.927504063E-2,1.374459267E-2,2.385425568E-2
9.695525839E0,4.003226757E-2,1.487040520E-2,1.413059235E-2
9.700545214E0,4.157894850E-2,2.319884300E-2,-1.428604126E-3
9.705564589E0,4.072791338E-2,1.835298538E-2,9.384155273E-4
9.710583964E0,4.801321030E-2,3.033113480E-2,-4.974365234E-3
9.715603339E0,3.738397360E-2,2.677464485E-2,-1.558494568E-2
9.720622714E0,3.516417742E-2,2.331757545E-2,-5.909919739E-3
9.725642089E0,3.647732735E-2,3.175830841E-2,1.080894470E-2
9.730661464E0,3.312361240E-2,1.994514465E-2,-5.855560303E-3
9.735680839E0,2.855992317E-2,4.019379616E-2,8.464813232E-3
9.740700214E0,3.936934471E-2,3.532910347E-2,1.910781860E-2
9.745719589E0,2.392697334E-2,2.935743332E-2,2.136421204E-2
9.750738964E0,1.334834099E-2,3.409743309E-2,5.789756775E-3
9.755758339E0,2.300167084E-2,3.173542023E-2,1.173019409E-2
9.760777714E0,1.359033585E-2,3.308081627E-2,-1.321506500E-2
9.765797089E0,1.493400335E-2,2.254819870E-2,3.598213196E-3
9.770816464E0,1.032787561E-2,2.274870872E-2,-5.853652954E-3
9.775835839E0,8.142411709E-3,1.945495605E-2,3.781318665E-3
9.780855214E0,1.436704397E-2,5.493402481E-3,-9.155273438E-4
9.785874589E0,1.455217600E-2,7.074117661E-3,-1.032066345E-2
9.790893964E0,8.886873722E-3,2.516841888E-2,-8.990287781E-3
9.795913339E0,1.876318455E-2,1.338911057E-2,-1.362037659E-2
9.800932714E0,2.845650911E-2,-6.566047668E-4,1.976966858E-3
9.805952089E0,2.858167887E-2,-2.752780914E-3,7.938385010E-3
9.810971464E0,3.703737259E-2,-2.505779266E-3,5.526542664E-3
9.815990839E0,3.589725494E-2,-2.235889435E-3,7.891654968E-3
9.821010214E0,3.367131948E-2,1.345229149E-2,6.666183472E-3
9.826029589E0,4.810899496E-2,1.357698441E-2,1.019859314E-2
9.831048964E0,3.865343332E-2,5.373477936E-3,1.488685608E-2
9.836068339E0,3.288584948E-2,1.495575905E-2,1.238918304E-2
9.841087714E0,4.268020391E-2,1.492786407E-2,1.939678192E-2
9.846107089E0,3.221559525E-2,2.436923981E-2,2.159118652E-2
9.851126464E0,3.134107590E-2,2.664875984E-2,2.021408081E-2
9.856145839E0,3.506422043E-2,2.782225609E-2,1.294612885E-2
9.861165214E0,4.219537973E-2,1.820755005E-2,2.471923828E-2
9.866184589E0,3.738909960E-2,1.937150955E-2,1.858901978E-2
9.871203964E0,3.860926628E-2,2.057647705E-2,2.320384979E-2
9.876223339E0,4.685920477E-2,1.604318619E-3,-7.028579712E-4
9.881242714E0,3.244525194E-2,7.764101028E-3,-1.133823395E-2
9.886262089E0,2.640241385E-2,1.622867584E-2,3.043174744E-3
9.891281464E0,2.870041132E-2,1.279115677E-2,-3.135681152E-2
9.896300839E0,1.295059919E-2,1.056790352E-2,-2.984333038E-2
9.901320214E0,2.000170946E-2,5.963563919E-3,-2.241992950E-2
9.906339589E0,3.414517641E-2,1.440596581E-2,-2.338027954E-2
9.911358964E0,3.047132492E-2,9.721040726E-3,-3.739929199E-2
9.916378339E0,4.713994265E-2,1.560473442E-2,2.077102661E-3
9.921397714E0,4.963386059E-2,1.656270027E-2,-1.556396484E-3
9.926417089E0,5.226391554E-2,7.934093475E-3,1.380729675E-2
9.931436464E0,6.811231375E-2,1.479244232E-2,1.834297180E-2
9.936455839E0,7.076990604E-2,1.203584671E-2,1.214313507E-2
9.941475370E0,6.036180258E-2,1.651763916E-2,1.195049286E-2
9.946495370E0,6.646686792E-2,1.035308838E-2,1.535129547E-2
9.951515370E0,5.573636293E-2,6.576061249E-3,2.703380585E-2
9.956535370E0,6.747597456E-2,1.128101349E-2,4.578590393E-2
9.961555058E0,6.702607870E-2,2.549958229E-2,3.591632843E-2
9.966574485E0,7.241994143E-2,3.372931480E-2,4.989337921E-2
9.971593860E0,5.161994696E-2,3.834319115E-2,3.051853180E-2
9.976613235E0,5.591994524E-2,2.041339874E-2,3.505992889E-2
9.981632610E0,6.153035164E-2,2.642488480E-2,2.413272858E-2
9.986651985E0,2.679514885E-2,2.287650108E-2,6.167411804E-3
9.991671360E0,2.199715376E-2,2.536463737E-2,-8.069038391E-3
9.996690735E0,1.262134314E-2,2.064371109E-2,3.907203674E-3
1.000171011E1,6.838500500E-3,2.542877197E-2,-7.963180542E-3
1.000672949E1,-6.075561047E-3,1.708841324E-2,5.191802979E-3
1.001174886E1,-1.315546036E-2,2.419805527E-2,2.803802490E-3
1.001676824E1,-4.631102085E-3,2.169394493E-2,2.534675598E-2
1.002178761E1,-1.387387514E-2,3.098225594E-2,5.123233795E-2
1.002680698E1,1.800674200E-2,3.056263924E-2,2.341079712E-2
1.003182636E1,5.889219046E-2,2.503490448E-2,-2.331733704E-2
1.003684574E1,6.684869528E-2,2.871775627E-2,-5.077743530E-2
1.004186511E1,4.155439138E-2,1.301550865E-2,-4.010772705E-2
1.004688449E1,-7.141232491E-4,1.382422447E-2,-2.123737335E-2
1.005190386E1,2.970457077E-3,4.003047943E-4,-2.477645874E-3
1.005692324E1,4.184198380E-2,-4.225015640E-3,-3.945350647E-3
1.006194261E1,7.784825563E-2,1.645684242E-2,-2.193164825E-2
1.006696198E1,9.086418152E-2,-4.182100296E-3,-5.035018921E-2
1.007198136E1,7.013678551E-2,-1.005458832E-2,-7.842731476E-2
1.007700074E1,3.228271008E-2,4.583597183E-3,-6.461715698E-2
1.008202011E1,-4.858613014E-3,1.447772980E-2,-4.965591431E-2
1.008703948E1,4.537105560E-4,6.299734116E-3,-2.295684814E-2
