"Time (s)","Linear Acceleration x (m/s^2)","Linear Acceleration y (m/s^2)","Linear Acceleration z (m/s^2)"
1.953233300E-2,-9.876469612E0,1.424523234E0,-9.047442436E0
2.957833300E-2,-1.020094395E1,1.771510839E0,-8.383072853E0
3.962333300E-2,-1.012797832E1,1.733083487E0,-8.199818611E0
4.966983300E-2,-9.976027489E0,1.558288574E0,-8.454587936E0
5.971749900E-2,-9.778367996E0,1.357351303E0,-8.816340446E0
6.976599900E-2,-9.766331673E0,1.283680320E0,-9.006349564E0
7.981539900E-2,-9.726825714E0,1.298492908E0,-9.122711182E0
8.986473200E-2,-9.760639191E0,1.313562632E0,-9.193774223E0
1.008113330E-1,-9.838466644E0,1.487822056E0,-8.996673584E0
1.108653330E-1,-9.829298019E0,1.687310457E0,-8.641095161E0
1.209123330E-1,-9.935802460E0,1.794429779E0,-8.433337212E0
1.309618330E-1,-1.002711773E1,1.905309200E0,-8.236769676E0
1.410108330E-1,-1.011616135E1,2.070681572E0,-8.200458527E0
1.510595830E-1,-1.019362450E1,2.071030378E0,-8.430078506E0
1.611083830E-1,-9.790229797E0,1.774616480E0,-8.595144272E0
1.711570490E-1,-9.415916443E0,1.417165995E0,-8.801237106E0
1.812051910E-1,-9.285712242E0,1.187898636E0,-8.993141174E0
1.912538160E-1,-9.471832275E0,1.339599609E0,-8.974505424E0
2.013025930E-1,-9.694983482E0,1.745137930E0,-8.671243668E0
2.113517930E-1,-9.738326073E0,2.096749544E0,-7.922440052E0
2.214008830E-1,-9.708429337E0,2.129533052E0,-7.443244934E0
2.314497160E-1,-9.758529663E0,2.174048901E0,-8.009163857E0
2.415003310E-1,-9.685223579E0,1.879591942E0,-8.521485329E0
2.515506880E-1,-9.498053551E0,1.436098218E0,-8.789035797E0
2.616504210E-1,-9.680031776E0,8.644286394E-1,-8.800502777E0
2.717466710E-1,-9.281896591E0,9.832572937E-1,-8.264522552E0
2.818399650E-1,-9.681845665E0,8.666865826E-1,-8.307291985E0
2.919305760E-1,-9.740715981E0,9.377127886E-1,-8.411689758E0
3.020190490E-1,-9.833741188E0,1.295172095E0,-8.300747871E0
3.121055490E-1,-9.842130661E0,1.472909451E0,-8.474545479E0
3.221902630E-1,-9.479104042E0,1.430872321E0,-8.393836975E0
3.322732170E-1,-9.523024559E0,1.383909822E0,-8.633211136E0
3.423895640E-1,-9.375113487E0,1.469708562E0,-9.020269394E0
3.525031470E-1,-9.253335953E0,1.353786588E0,-9.138726234E0
3.626142670E-1,-9.220059395E0,1.205646157E0,-9.120701790E0
3.727231510E-1,-9.502339363E0,1.156186342E0,-9.095683098E0
3.828300020E-1,-9.810632706E0,1.200168252E0,-9.049570084E0
3.929350020E-1,-9.738489151E0,1.379946351E0,-8.953840256E0
4.030382770E-1,-9.864014626E0,1.454263568E0,-8.702951431E0
4.131398770E-1,-9.709520340E0,1.554987431E0,-8.543004990E0
4.232414770E-1,-9.609883308E0,1.446073532E0,-8.854276657E0
4.333429770E-1,-9.443021774E0,1.319724441E0,-8.927860260E0
4.434444770E-1,-9.142097473E0,1.230128527E0,-9.099120140E0
4.535460430E-1,-9.025873184E0,1.084712982E0,-9.317657471E0
4.636475090E-1,-9.062627792E0,1.045534968E0,-9.391839027E0
4.737489750E-1,-9.126669884E0,1.076986313E0,-9.266662598E0
4.838504410E-1,-9.281711578E0,1.166750193E0,-9.062034607E0
4.939516070E-1,-9.427011490E0,1.358904719E0,-8.888395309E0
5.040729070E-1,-9.520434380E0,1.412104726E0,-8.805876732E0
5.141939730E-1,-9.531070709E0,1.578229666E0,-8.587397575E0
5.243150060E-1,-9.422395706E0,1.519534230E0,-8.689655304E0
5.344361060E-1,-9.294095039E0,1.431558251E0,-8.877528191E0
5.445565060E-1,-9.098696709E0,1.309276462E0,-9.091118813E0
5.546771060E-1,-8.757476807E0,1.069716573E0,-9.476585388E0
5.647730390E-1,-8.744227409E0,8.212951422E-1,-9.404969215E0
5.748691720E-1,-8.914334297E0,8.040368557E-1,-9.221652985E0
5.862453330E-1,-8.967412949E0,9.788602591E-1,-9.125034332E0
5.962953330E-1,-9.249128342E0,1.185309291E0,-8.715152740E0
6.063453330E-1,-9.335235596E0,1.381830335E0,-8.272408485E0
6.163938330E-1,-9.409776688E0,1.565117359E0,-8.124233246E0
6.264418330E-1,-9.427022934E0,1.518252611E0,-8.166998863E0
6.364905830E-1,-9.455399513E0,1.302650094E0,-8.417323112E0
6.465389830E-1,-9.217802048E0,1.084472775E0,-8.751225471E0
6.565873160E-1,-9.177317619E0,8.010888100E-1,-8.943999290E0
6.666347440E-1,-9.177150726E0,6.995977163E-1,-9.010576248E0
6.766818690E-1,-9.105909348E0,7.560718060E-1,-8.898425102E0
6.867289800E-1,-9.157589912E0,8.994736671E-1,-8.602581024E0
6.967763800E-1,-9.234717369E0,1.062978983E0,-8.350515366E0
7.068237430E-1,-9.385624886E0,1.204301953E0,-8.300298691E0
7.168709930E-1,-9.546477318E0,1.255809069E0,-8.147686005E0
7.269185310E-1,-9.497914314E0,1.329226494E0,-8.163003922E0
7.369662450E-1,-9.538904190E0,1.332514167E0,-8.241052628E0
7.470475110E-1,-9.315819740E0,1.158434868E0,-8.384334564E0
7.571268860E-1,-9.115039825E0,9.457565546E-1,-8.449230194E0
7.672046500E-1,-8.997319221E0,9.056339264E-1,-8.280313492E0
7.772807050E-1,-8.979556084E0,9.323105812E-1,-8.267833710E0
7.873553360E-1,-9.063299179E0,9.799734354E-1,-8.274930000E0
7.974286360E-1,-9.213335037E0,1.069340706E0,-8.179452896E0
8.075004930E-1,-9.352121353E0,1.233469605E0,-7.967187881E0
8.175709930E-1,-9.470695496E0,1.314912677E0,-7.776785851E0
8.276750360E-1,-9.300614357E0,1.455759287E0,-7.818561077E0
8.377766190E-1,-9.217856407E0,1.436455846E0,-7.936285019E0
8.478760190E-1,-9.211996078E0,1.360248327E0,-8.065110207E0
8.579733650E-1,-9.274780273E0,1.239552617E0,-8.463734627E0
8.680687720E-1,-9.285972595E0,1.208706021E0,-8.663355827E0
8.781624860E-1,-9.175584793E0,1.196722865E0,-8.966227531E0
8.882545540E-1,-9.146177292E0,1.113010645E0,-9.022941589E0
8.983451870E-1,-9.114917755E0,1.183305860E0,-8.967769623E0
9.084355200E-1,-9.201901436E0,1.355444908E0,-8.870360374E0
9.185258200E-1,-9.295410156E0,1.484465599E0,-8.732139587E0
9.286159530E-1,-9.364247322E0,1.549650431E0,-8.564605713E0
9.387058860E-1,-9.376655579E0,1.518553972E0,-8.537331581E0
9.487957190E-1,-9.373835564E0,1.485610962E0,-8.678703308E0
9.588855190E-1,-9.516160011E0,1.384166002E0,-8.715560913E0
9.689754190E-1,-9.680382729E0,1.104587555E0,-8.906080246E0
9.790653520E-1,-9.761839867E0,9.117581844E-1,-9.414937019E0
9.891759520E-1,-9.817022324E0,7.356560826E-1,-9.660112381E0
9.992866180E-1,-9.895311356E0,4.799332023E-1,-9.554288864E0
1.009397318E0,-9.313162804E0,1.083479404E0,-8.725387573E0
1.019508084E0,-9.411117554E0,1.263146877E0,-7.449117661E0
1.029618784E0,-9.540139198E0,1.279462695E0,-6.525062561E0
1.039729517E0,-9.332593918E0,1.656228304E0,-6.080080509E0
1.049823583E0,-9.584753036E0,1.320359945E0,-5.931981087E0
1.059917749E0,-9.532423019E0,1.352202177E0,-6.171977997E0
1.070038282E0,-9.185163498E0,1.387572527E0,-6.633561134E0
1.080158915E0,-9.320005417E0,1.252777696E0,-7.057285786E0
1.090279581E0,-9.447891235E0,9.343699813E-1,-6.911235809E0
1.100400347E0,-9.417838097E0,9.303779602E-1,-6.011251450E0
1.110521280E0,-9.305011749E0,1.010721326E0,-4.730811119E0
1.120642413E0,-9.060247421E0,1.405461788E0,-3.462681770E0
1.130737079E0,-8.769906044E0,1.578240871E0,-2.538043022E0
1.140832079E0,-8.375361443E0,1.508862734E0,-5.403127670E-1
1.150927245E0,-8.575162888E0,1.579378605E0,1.372913361E0
1.161022578E0,-9.186879158E0,1.553380013E0,2.819015026E0
1.171118011E0,-9.131507874E0,1.888293982E0,3.049001694E0
1.181213444E0,-9.207313538E0,2.021519899E0,3.130123615E0
1.191308844E0,-9.138438225E0,2.337164640E0,2.726329803E0
1.201404210E0,-9.211356163E0,2.250818253E0,2.942522526E0
1.211499743E0,-9.207387924E0,1.495201468E0,3.884374142E0
1.221595276E0,-8.723044395E0,1.332122207E0,4.855379581E0
1.231711576E0,-8.313304901E0,1.510430813E0,5.527762413E0
1.241827976E0,-7.960402012E0,1.684346318E0,6.628391266E0
1.251944609E0,-7.743351460E0,1.775305033E0,7.767387390E0
1.262061275E0,-7.819386959E0,1.402097225E0,9.343802452E0
1.272178075E0,-7.796702385E0,9.540129900E-1,1.065357399E1
1.282294908E0,-7.921816349E0,6.589376330E-1,1.109429359E1
1.292391008E0,-8.404204369E0,5.739395618E-1,1.122715759E1
1.302486874E0,-7.817039490E0,2.841832876E0,1.167314434E1
1.313910333E0,-8.581865311E0,-4.681244493E-2,1.367746544E1
1.323956333E0,-7.004216194E0,3.579037189E0,1.808377266E1
1.334004333E0,-6.431898117E0,4.952431917E-1,1.417908669E1
1.344054333E0,-5.964946270E0,-2.736203432E0,1.615275574E1
1.354104333E0,-2.675710201E0,-1.474678516E-1,2.581325150E1
1.364155083E0,-2.912759304E0,1.907426476E0,1.894978714E1
1.374206483E0,-5.467851162E0,1.039319277E0,1.094381905E1
1.384257983E0,-7.271526337E0,9.499974251E-1,8.578166008E0
1.394309125E0,-8.386205673E0,6.972984076E-1,8.080346107E0
1.404360875E0,-8.003271103E0,3.771127760E-1,8.486481667E0
1.414413208E0,-6.802909374E0,2.546200752E-1,9.965094566E0
1.424465908E0,-6.404397011E0,1.473664492E-1,1.008842754E1
1.434518635E0,-6.877156734E0,8.777268976E-2,9.953225136E0
1.444571385E0,-7.421393394E0,4.404226691E-2,9.392128944E0
1.454624308E0,-8.042377472E0,6.723931432E-2,9.221926689E0
1.464677593E0,-8.589969635E0,5.026593804E-3,9.413696289E0
1.474770393E0,-8.590268135E0,-8.355097473E-2,9.153565407E0
1.484860830E0,-8.705917358E0,-9.955021739E-2,9.188898087E0
1.494949124E0,-9.276731491E0,-9.542173892E-2,8.838766098E0
1.505035401E0,-9.945561409E0,-2.704963088E-2,9.453345299E0
1.515119822E0,-9.981875420E0,-2.830249071E-1,9.707409859E0
1.525202572E0,-9.416360855E0,-5.972568393E-1,9.452415466E0
1.535283905E0,-8.670161247E0,-5.172384977E-1,9.414058685E0
1.545364041E0,-7.774803162E0,6.354045123E-3,9.033874512E0
1.556663333E0,-7.138502121E0,4.538406432E-1,9.639023781E0
1.566718333E0,-7.602182388E0,6.903042793E-1,9.443068504E0
1.576781333E0,-8.456306458E0,5.420116782E-1,9.152703285E0
1.586838833E0,-9.200301170E0,4.265954792E-1,9.371299744E0
1.596894166E0,-9.307327271E0,3.722133040E-1,8.612426758E0
1.606948416E0,-9.368520737E0,3.671790659E-2,9.091202736E0
1.617002816E0,-9.299987793E0,-1.172343343E-1,9.523422241E0
1.627056816E0,-8.834867477E0,-1.772673875E-1,9.126368523E0
1.637109816E0,-9.195732117E0,-2.044771612E-1,9.348308563E0
1.647162441E0,-9.315279007E0,-1.384708881E-1,9.507081032E0
1.657215441E0,-8.527228355E0,-2.680263817E-1,8.973226547E0
1.667268241E0,-8.576898575E0,5.969080329E-2,7.923147202E0
1.677321150E0,-9.088234901E0,2.697468996E-1,9.610401154E0
1.687374066E0,-8.779283524E0,-1.121258736E-2,8.938385010E0
1.697427142E0,-8.292861938E0,1.833931655E-1,7.737583160E0
1.707480142E0,-7.756762505E0,2.628980875E-1,8.764195442E0
1.717573742E0,-7.548525810E0,6.726157665E-1,9.401066780E0
1.727664679E0,-7.732357979E0,1.001053691E0,8.289655685E0
1.737753384E0,-8.337267876E0,1.065052748E0,7.133167267E0
1.747840050E0,-8.610605240E0,1.030829191E0,7.209843636E0
1.757924839E0,-8.646309853E0,7.312999964E-1,8.776169777E0
1.768008089E0,-8.718390465E0,4.060027599E-1,8.897340775E0
1.778089803E0,-8.729563713E0,2.381625772E-1,7.929646492E0
1.788170166E0,-8.946782112E0,1.882315427E-1,6.841722488E0
1.798283383E0,-9.800757408E0,1.421940178E-1,6.952735424E0
1.808393966E0,-1.036216831E1,2.202557474E-1,8.767130852E0
1.818502166E0,-1.070931721E1,4.124804437E-1,8.955217361E0
1.828608127E0,-1.098954391E1,5.917886496E-1,7.716675758E0
1.838711904E0,-1.098673534E1,6.944903135E-1,7.036174774E0
1.848813868E0,-1.085131836E1,7.188274860E-1,6.830101967E0
1.858913971E0,-1.052343273E1,6.520414352E-1,6.850948334E0
1.869012537E0,-1.012247467E1,5.066387057E-1,6.954054832E0
1.879110503E0,-9.716850281E0,4.133096039E-1,7.057956696E0
1.889208369E0,-9.506951332E0,4.298378229E-1,6.645253181E0
1.899306235E0,-9.389077187E0,5.021885037E-1,7.559132099E0
1.909404101E0,-9.278955460E0,5.927010775E-1,8.559436798E0
1.919501701E0,-9.374947548E0,7.124433517E-1,8.075393677E0
1.929599334E0,-9.649959564E0,6.265665293E-1,7.910592079E0
1.939697100E0,-9.980802536E0,4.505401254E-1,7.757080078E0
1.949794900E0,-1.024424076E1,2.859840691E-1,7.542553902E0
1.959912300E0,-1.035799503E1,2.175748199E-1,7.318833351E0
1.970029700E0,-1.044208431E1,2.243529558E-1,7.240261078E0
1.980146933E0,-1.054716301E1,1.308788359E-1,7.320148468E0
1.990264033E0,-1.025411415E1,9.193770587E-2,7.421583176E0
2.000380899E0,-9.938477516E0,1.054196954E-1,7.660720825E0
2.010497599E0,-9.312890053E0,2.363309860E-1,7.587268829E0
2.020593765E0,-9.265448570E0,3.267869055E-1,7.504504204E0
2.030689765E0,-9.175791740E0,4.060337543E-1,7.509099007E0
2.041987333E0,-9.322703362E0,4.672884345E-1,7.607163429E0
2.052031333E0,-9.228772163E0,5.588783622E-1,7.377866268E0
2.062080333E0,-9.592460632E0,6.213794947E-1,7.393005371E0
2.072130333E0,-1.026832199E1,3.719482422E-1,7.605181694E0
2.082179333E0,-1.021743393E1,3.046881855E-1,7.551127434E0
2.092228833E0,-1.052327824E1,6.048661470E-2,7.713422775E0
2.102277633E0,-1.035632801E1,-5.381545424E-2,7.403444290E0
2.112326133E0,-9.906352997E0,7.785597444E-2,7.076622009E0
2.122373704E0,-9.899982452E0,3.680616617E-2,7.230760574E0
2.132421329E0,-9.153236389E0,3.994304240E-1,6.852194309E0
2.142469217E0,-8.816997528E0,5.381184816E-1,6.849762440E0
2.152517517E0,-9.003089905E0,5.029103756E-1,7.239933968E0
2.162565698E0,-9.246274948E0,4.505936205E-1,7.603866577E0
2.172614031E0,-9.555019379E0,5.808370709E-1,7.732601643E0
2.182662338E0,-9.539278984E0,7.863053083E-1,7.434103489E0
2.192710980E0,-9.241633415E0,1.095585823E0,7.026141167E0
2.202799713E0,-8.724573135E0,1.403790236E0,6.831082344E0
2.212886150E0,-9.152855873E0,1.215895891E0,7.468209267E0
2.222970502E0,-9.018235207E0,1.534685373E0,7.902391434E0
2.233053057E0,-9.010524750E0,1.772776604E0,7.871532917E0
2.243133951E0,-8.131027222E0,2.295320749E0,6.885886192E0
2.253213351E0,-6.992521286E0,2.516901970E0,6.007858276E0
2.263291398E0,-7.082551003E0,2.014285326E0,6.009593964E0
2.273368398E0,-7.388383389E0,1.408292174E0,6.276955605E0
2.284294398E0,-9.184077263E0,3.188192844E-1,8.218094826E0
2.294706333E0,-1.176535988E1,-7.959951758E-1,9.663607597E0
2.304758333E0,-1.248003769E1,-8.782193661E-1,8.847326279E0
2.314815333E0,-1.072477245E1,-2.254745960E-1,7.917282104E0
2.324868833E0,-9.127662659E0,5.580310822E-1,7.346294403E0
2.334921833E0,-8.066635132E0,1.105184197E0,6.510874748E0
2.344974083E0,-7.489441872E0,1.583337069E0,6.479683876E0
2.355026083E0,-7.158883095E0,1.874969959E0,7.617512703E0
2.365077083E0,-7.286976814E0,1.912941098E0,8.570740700E0
2.375128511E0,-7.638723373E0,1.820562124E0,8.171270370E0
2.385179886E0,-7.156599522E0,1.829581022E0,6.722649574E0
2.395231552E0,-7.759372711E0,1.571297765E0,6.730570793E0
2.405283452E0,-9.508379936E0,1.155211091E0,7.985467434E0
2.415335906E0,-1.085580158E1,7.050549984E-1,8.188389778E0
2.425388906E0,-1.108482265E1,5.509831905E-1,7.519562721E0
2.435441982E0,-1.006162643E1,6.651716232E-1,6.323670387E0
2.445537910E0,-8.998603821E0,8.449033499E-1,6.303118706E0
2.455631043E0,-8.121835709E0,9.581129551E-1,7.168158531E0
2.465721668E0,-7.522190094E0,9.133885503E-1,8.045762062E0
2.475810079E0,-7.491036892E0,8.748521805E-1,7.938459873E0
2.485896745E0,-7.997580528E0,8.861311078E-1,7.306093216E0
2.495981902E0,-8.532975197E0,1.036597848E0,7.070806980E0
2.506065702E0,-8.689658165E0,1.185011744E0,7.153796196E0
2.516148273E0,-8.869744301E0,1.212903142E0,7.295133591E0
2.526265863E0,-8.986871719E0,1.117393374E0,7.052812099E0
2.536380732E0,-9.038089752E0,1.014983416E0,6.793188095E0
2.546493148E0,-9.220531464E0,9.716340899E-1,7.285771847E0
2.556603388E0,-9.181436539E0,1.045624971E0,7.647036552E0
2.566711426E0,-9.037888527E0,1.137710810E0,7.498931885E0
2.576817500E0,-8.971633911E0,1.220496416E0,7.240216255E0
2.586921750E0,-9.091361046E0,1.172981143E0,7.175439835E0
2.597024439E0,-9.290137291E0,1.062023044E0,7.172902107E0
2.607125439E0,-9.494058609E0,8.777540326E-1,7.221711159E0
2.617226339E0,-9.499788284E0,7.659791112E-1,7.286497593E0
2.627327439E0,-9.433871269E0,6.568669677E-1,7.373034477E0
2.637428672E0,-8.814816475E0,6.846634150E-1,7.154743671E0
2.647530138E0,-8.284412384E0,7.880626321E-1,7.175893784E0
2.657631804E0,-8.313554764E0,8.558186889E-1,7.636135101E0
2.667733704E0,-8.453818321E0,8.963698745E-1,7.699320793E0
2.677835637E0,-8.531586647E0,1.056703091E0,7.230211258E0
2.687955670E0,-8.694287300E0,1.313851833E0,7.183191299E0
2.698075736E0,-8.552810669E0,1.355449200E0,6.998661041E0
2.708195702E0,-8.749780655E0,1.328511238E0,7.292964935E0
2.718315502E0,-9.281921387E0,1.113320112E0,7.552415848E0
2.728434968E0,-9.229966164E0,1.060718179E0,7.068224907E0
2.738554234E0,-9.120684624E0,1.070727229E0,6.929656029E0
2.748653434E0,-9.196802139E0,1.027323008E0,7.093428135E0
2.758752400E0,-9.165102005E0,1.060463905E0,7.128525734E0
2.770080333E0,-9.072883606E0,1.112448931E0,7.163845062E0
2.780133333E0,-8.898997307E0,9.909019470E-1,7.044352531E0
2.790183333E0,-8.935682297E0,8.864499927E-1,7.156462193E0
2.800236833E0,-9.084199905E0,7.750082016E-1,7.141832352E0
2.810289833E0,-9.131028175E0,7.382268906E-1,6.989065170E0
2.820342833E0,-8.967270851E0,8.010922670E-1,6.761804581E0
2.830394633E0,-8.629583359E0,7.268471122E-1,6.531479359E0
2.840446133E0,-8.599944115E0,5.842217207E-1,6.947829247E0
2.850496847E0,-8.436488152E0,4.533648491E-1,6.908043861E0
2.860547472E0,-8.366006851E0,4.103712142E-1,6.690225601E0
2.870597916E0,-8.429042816E0,5.229717493E-1,6.589967728E0
2.880648016E0,-8.513639450E0,6.890347004E-1,6.613904953E0
2.890698016E0,-8.710589409E0,7.916375399E-1,6.705995560E0
2.900748016E0,-8.830382347E0,9.192457199E-1,6.634903908E0
2.910798169E0,-8.846470833E0,9.960440397E-1,6.533905029E0
2.920848169E0,-8.960175514E0,1.021041989E0,6.422632694E0
2.930938569E0,-9.030856133E0,1.029579163E0,6.362553596E0
2.941026381E0,-8.996138573E0,1.039507270E0,6.329556465E0
2.951111910E0,-8.817170143E0,9.830229282E-1,6.331576347E0
2.961195521E0,-8.630941391E0,8.741186261E-1,6.353230476E0
2.971277310E0,-8.542816162E0,8.202973008E-1,6.305931568E0
2.981357660E0,-8.475687981E0,6.667617559E-1,6.140666008E0
2.991436707E0,-8.554012299E0,6.400400996E-1,6.087444305E0
3.001514479E0,-8.651206017E0,6.862182021E-1,6.077752113E0
3.011625826E0,-8.661458015E0,7.120262980E-1,5.923718929E0
3.021734576E0,-8.644491196E0,7.221616507E-1,5.838147163E0
3.031842016E0,-8.615361214E0,7.071660161E-1,5.829899311E0
3.041947016E0,-8.545483589E0,6.762912273E-1,5.789049625E0
3.052049904E0,-8.468238831E0,6.578574777E-1,5.770297527E0
3.062150904E0,-8.357195854E0,6.611647010E-1,5.684821606E0
3.072250179E0,-8.353786469E0,6.570408940E-1,5.614313602E0
3.082347645E0,-8.395913124E0,6.310957074E-1,5.563831329E0
3.092444845E0,-8.468943596E0,6.239098907E-1,5.506505489E0
3.102541678E0,-8.481445312E0,6.235960126E-1,5.429377556E0
3.112638311E0,-8.438651085E0,5.825377703E-1,5.405262470E0
3.122734677E0,-8.348149300E0,5.942933559E-1,5.355984211E0
3.132831043E0,-8.195867538E0,6.108741760E-1,5.272427559E0
3.142927309E0,-8.125411987E0,6.321718693E-1,5.317276001E0
3.153023709E0,-8.138714790E0,7.397174239E-1,5.336371422E0
3.163119942E0,-8.139141083E0,8.163558245E-1,5.239499092E0
3.173233408E0,-8.097524643E0,8.542553782E-1,5.076155663E0
3.183346908E0,-8.105405807E0,8.476988077E-1,4.988551617E0
3.193460474E0,-8.123101234E0,8.164511323E-1,5.019381046E0
3.203573940E0,-8.123754501E0,7.683329582E-1,5.024046421E0
3.213687240E0,-8.072677612E0,7.757154703E-1,4.983810902E0
3.223800540E0,-7.996264935E0,7.548033595E-1,4.941960335E0
3.233893506E0,-7.926384449E0,7.840458155E-1,4.918911934E0
3.243986339E0,-7.911136627E0,7.674272656E-1,4.814505577E0
3.254105639E0,-7.861782551E0,7.741086483E-1,4.733805656E0
3.264224705E0,-7.869503975E0,7.661185265E-1,4.569441319E0
3.274343671E0,-7.887053013E0,7.510132790E-1,4.121347904E0
3.284462437E0,-7.908293724E0,6.923922300E-1,4.436355591E0
3.294580870E0,-7.894191265E0,5.995841622E-1,5.074940681E0
3.304699170E0,-7.823843002E0,6.007719040E-1,4.633529663E0
3.314790836E0,-7.834948063E0,6.203875542E-1,4.233471870E0
3.324882536E0,-7.820147514E0,6.078229547E-1,4.085089684E0
3.334973302E0,-7.777218819E0,5.794637203E-1,4.104788780E0
3.345064202E0,-7.696029186E0,5.103755593E-1,4.301095963E0
3.355155202E0,-7.625102043E0,5.009630322E-1,4.369617462E0
3.365246202E0,-7.567297459E0,5.171674490E-1,4.331490993E0
3.375337135E0,-7.483860493E0,5.540013909E-1,4.238790035E0
3.385428268E0,-7.456357956E0,6.115431786E-1,4.127730846E0
3.395520601E0,-7.447045326E0,6.279472113E-1,3.999197483E0
3.405613101E0,-7.417166233E0,6.131029725E-1,3.943611145E0
3.415724067E0,-7.372578621E0,5.674725771E-1,3.900235176E0
3.425835133E0,-7.400668144E0,5.199009180E-1,3.861065388E0
3.435946299E0,-7.439581871E0,4.655436277E-1,3.838537693E0
3.446057699E0,-7.423289776E0,4.809460938E-1,3.782895565E0
3.456169199E0,-7.346752167E0,5.204241276E-1,3.751263142E0
3.466281032E0,-7.270267010E0,5.359095335E-1,3.725045681E0
3.476375765E0,-7.251510620E0,5.609782338E-1,3.697310925E0
3.486470665E0,-7.205958366E0,6.053677201E-1,3.607293606E0
3.496592331E0,-7.154708862E0,5.757546425E-1,3.526295185E0
3.506714031E0,-7.093658924E0,5.819243193E-1,3.467111588E0
3.516835731E0,-7.033019066E0,5.757432580E-1,3.456816673E0
3.526957464E0,-6.932241440E0,5.596823692E-1,3.462040424E0
3.537079264E0,-6.925151825E0,5.864481926E-1,3.506411552E0
3.547201130E0,-6.934394836E0,5.864125490E-1,3.320909500E0
3.557296430E0,-6.909079075E0,5.736252069E-1,3.314229012E0
3.567391796E0,-6.857453823E0,5.800821781E-1,3.224014759E0
3.577486996E0,-6.850205898E0,5.491232872E-1,3.166674137E0
3.587582096E0,-6.859974384E0,5.441419482E-1,3.160657406E0
3.597677329E0,-6.846873283E0,4.989131093E-1,3.158676624E0
3.607774729E0,-6.793287754E0,5.504738092E-1,3.037562370E0
3.617871962E0,-6.686001778E0,5.683159828E-1,2.911064148E0
3.627969162E0,-6.575950623E0,5.397387743E-1,3.019375324E0
3.638066395E0,-6.481297970E0,4.756646156E-1,3.083728313E0
3.648163561E0,-6.432800293E0,4.531085193E-1,3.024666786E0
3.658281227E0,-6.413809299E0,4.260287881E-1,3.014719486E0
3.668398893E0,-6.418179989E0,4.391334653E-1,2.930439949E0
3.678516593E0,-6.400817394E0,4.661714137E-1,2.841659069E0
3.688634226E0,-6.368296146E0,5.143643618E-1,2.798068047E0
3.698750826E0,-6.332745075E0,4.953519106E-1,2.747176647E0
3.708867259E0,-6.327704430E0,4.500541091E-1,2.700992584E0
3.718965259E0,-6.307886600E0,4.145253897E-1,2.559167385E0
3.729063225E0,-6.304322243E0,4.052870274E-1,2.510745049E0
3.739188158E0,-6.243487358E0,4.249240160E-1,2.508505821E0
3.749312991E0,-6.206949234E0,4.519841671E-1,2.487928867E0
3.759437757E0,-6.135323048E0,4.917898476E-1,2.480559826E0
3.769562490E0,-6.059049129E0,4.980550408E-1,2.464186668E0
3.779687123E0,-6.018214226E0,4.894178510E-1,2.371218681E0
3.789811723E0,-5.979484081E0,4.538742304E-1,2.311954498E0
3.799909356E0,-5.969374657E0,4.157254100E-1,2.269793034E0
3.810006922E0,-5.933080196E0,3.921566010E-1,2.240177155E0
3.820104422E0,-5.895174980E0,4.168936014E-1,2.266724110E0
3.830201988E0,-5.816751480E0,4.633128047E-1,2.200458527E0
3.840299454E0,-5.749989986E0,4.996882081E-1,2.131936073E0
3.850396920E0,-5.658427238E0,4.767065346E-1,2.052662849E0
3.860494420E0,-5.600199223E0,4.945940673E-1,2.013164520E0
3.870591986E0,-5.493011951E0,4.552648067E-1,1.998365402E0
3.880689686E0,-5.359546661E0,4.326584339E-1,1.978621006E0
3.890787419E0,-5.221169472E0,3.955123723E-1,1.968253613E0
3.900901985E0,-5.123022556E0,3.798153400E-1,1.909645081E0
3.911014451E0,-5.113246918E0,3.975040913E-1,1.779135704E0
3.921126984E0,-5.039908886E0,3.809449077E-1,1.675846100E0
3.931239617E0,-4.931900501E0,3.949871659E-1,1.578368187E0
3.941352283E0,-4.890749454E0,3.920461535E-1,9.893302917E-1
3.951464849E0,-4.878703594E0,3.215267658E-1,1.100071907E0
3.961556815E0,-4.750733852E0,2.283133864E-1,1.975172997E0
3.971648781E0,-4.583774090E0,2.576670349E-1,1.456197739E0
3.981766847E0,-4.657830238E0,3.013471961E-1,1.039094925E0
3.991884880E0,-4.637306213E0,2.699794173E-1,1.232681274E0
4.002002913E0,-4.540367126E0,2.249824703E-1,1.339568138E0
4.012120913E0,-4.386571884E0,2.342316657E-1,1.384892464E0
4.022238813E0,-4.281307220E0,2.131285071E-1,1.414138794E0
4.032356879E0,-4.227125645E0,2.413485050E-1,1.373384476E0
4.042447879E0,-4.167073727E0,3.198518455E-1,1.259227753E0
4.052538779E0,-4.131063938E0,3.475868106E-1,1.141822815E0
4.062629445E0,-4.096277237E0,3.337120414E-1,1.124758720E0
4.072719845E0,-4.106356144E0,3.102082610E-1,1.143717766E0
4.082810145E0,-4.079309940E0,2.610274553E-1,1.085876465E0
4.092900311E0,-4.021172047E0,2.219057083E-1,1.018928528E0
4.102990477E0,-4.000537872E0,1.975606531E-1,9.604148865E-1
4.113080643E0,-3.974321365E0,2.045511007E-1,9.438133240E-1
4.123170743E0,-3.919731140E0,2.478215098E-1,9.158058167E-1
4.133260543E0,-3.879823208E0,2.933753431E-1,9.098787308E-1
4.143370643E0,-3.830665112E0,2.955940366E-1,9.499759674E-1
4.153480743E0,-3.798411608E0,2.807980478E-1,9.617729187E-1
4.163590843E0,-3.715440750E0,3.041517437E-1,8.851470947E-1
4.173700843E0,-3.686621904E0,3.180421591E-1,8.060798645E-1
4.183810743E0,-3.588587284E0,2.624376118E-1,7.945241928E-1
4.193920609E0,-3.539209366E0,2.403708994E-1,8.028268814E-1
4.204013542E0,-3.435106039E0,2.326665968E-1,8.068447113E-1
4.214106408E0,-3.436470270E0,2.152335197E-1,8.088703156E-1
4.224225408E0,-3.392310619E0,1.972558200E-1,7.274303436E-1
4.234344341E0,-3.263052940E0,2.248695195E-1,8.517007828E-1
4.244463141E0,-3.183819294E0,2.509036958E-1,7.502040863E-1
4.254582074E0,-3.166423082E0,2.239645422E-1,5.747184753E-1
4.264700940E0,-3.176192760E0,1.743706316E-1,5.373506546E-1
4.274819740E0,-3.137585640E0,1.345797330E-1,5.034570694E-1
4.284912273E0,-3.013018847E0,1.441245377E-1,5.034856796E-1
4.295004706E0,-2.889795065E0,1.589107513E-1,6.527681351E-1
4.305096906E0,-2.852027416E0,1.707289070E-1,7.239465714E-1
4.315189239E0,-2.831951618E0,2.053488344E-1,6.320734024E-1
4.325281639E0,-2.813422441E0,1.919194311E-1,5.585050583E-1
4.335373772E0,-2.752459288E0,1.744377017E-1,5.421247482E-1
4.345465872E0,-2.706194878E0,2.150397748E-1,5.788784027E-1
4.355557805E0,-2.588205099E0,1.644561142E-1,5.202407837E-1
4.365649771E0,-2.485720158E0,1.470835358E-1,5.620927811E-1
4.375741704E0,-2.456779003E0,1.124338061E-1,5.609903336E-1
4.385850370E0,-2.463945150E0,1.470655501E-1,4.813032150E-1
4.395958903E0,-2.466057777E0,1.697520316E-1,4.210462570E-1
4.406067403E0,-2.438898802E0,1.803558469E-1,3.274669647E-1
4.416175869E0,-2.390619278E0,1.813715845E-1,3.277511597E-1
4.426284269E0,-2.298377752E0,1.708246171E-1,3.431940079E-1
4.436392835E0,-2.216764688E0,1.411971152E-1,3.520860672E-1
4.446481035E0,-2.157237768E0,1.256738901E-1,3.446912766E-1
4.456569001E0,-2.133516550E0,9.321977943E-2,3.351869583E-1
4.466683367E0,-2.071224689E0,1.138626710E-1,3.283166885E-1
4.476797667E0,-1.944850206E0,1.492755115E-1,3.578157425E-1
4.486912900E0,-1.852448940E0,1.918676943E-1,3.350620270E-1
4.497028233E0,-1.819532633E0,1.786538661E-1,2.550649643E-1
4.507143466E0,-1.809965372E0,1.695054471E-1,1.967840195E-1
4.517258632E0,-1.795701742E0,1.697250605E-1,1.962957382E-1
4.527347565E0,-1.752496481E0,1.318571866E-1,2.200078964E-1
4.537436298E0,-1.634567499E0,1.060657278E-1,2.726440430E-1
4.547524898E0,-1.518122911E0,8.752447367E-2,2.272329330E-1
4.557613464E0,-1.353555441E0,8.843757212E-2,1.845464706E-1
4.567701930E0,-1.188602686E0,4.566022754E-2,1.694965363E-1
4.577790263E0,-1.135801792E0,4.886975884E-2,2.060155869E-1
4.587878596E0,-1.071233034E0,5.503961444E-2,1.381769180E-1
4.597966896E0,-1.071310282E0,5.950008333E-2,-3.098335266E-1
4.608055862E0,-1.003964186E0,3.000234067E-2,-6.897926331E-3
4.618144728E0,-8.735201955E-1,5.741827190E-2,6.444845200E-1
4.628253628E0,-8.002079129E-1,1.010178328E-1,3.381633759E-2
4.638362661E0,-7.921079993E-1,1.323323846E-1,4.482460022E-2
4.648471694E0,-8.209317923E-1,1.288233995E-1,1.813888550E-2
4.658580894E0,-8.067522049E-1,5.382496119E-2,-1.448574066E-1
4.668690127E0,-7.977805734E-1,-4.309193790E-2,-1.229887009E-1
4.678799393E0,-7.566844821E-1,-7.783862948E-2,2.186965942E-2
4.688891926E0,-6.310496926E-1,-4.554685950E-2,1.625108719E-1
4.698984459E0,-5.323432684E-1,-3.488601744E-2,2.410402298E-1
4.709920459E0,-4.994250536E-1,3.529241681E-2,2.309093475E-1
4.720341333E0,-4.228339791E-1,6.197184324E-2,1.154479980E-1
4.730387333E0,-3.930284381E-1,8.133764565E-2,5.287361145E-2
4.740430333E0,-3.655071855E-1,8.410809934E-2,4.327869415E-2
4.750472833E0,-3.636369109E-1,7.511314750E-2,7.700634003E-2
4.760514833E0,-3.871155977E-1,3.966577351E-2,9.416866302E-2
4.770558083E0,-3.870363235E-1,2.767287195E-2,5.874633789E-2
4.780601683E0,-4.086870551E-1,1.071840525E-4,-7.718086243E-3
4.790644683E0,-4.284229875E-1,9.953230619E-3,2.536773682E-3
4.800687825E0,-4.247896075E-1,4.410701990E-2,3.681755066E-2
4.810730950E0,-3.829126954E-1,9.520465136E-2,6.395244598E-2
4.820773838E0,-3.253769875E-1,6.159467995E-2,3.857135773E-2
4.830817138E0,-2.886971235E-1,4.128555954E-2,-5.755424500E-3
4.840860410E0,-2.539383769E-1,4.266428947E-2,9.966850281E-3
4.850904243E0,-2.717608213E-1,5.272267759E-2,3.305721283E-2
4.860948243E0,-2.404921651E-1,4.672089219E-2,2.991008759E-2
4.871029528E0,-2.512292862E-1,4.060371220E-2,3.646373749E-2
4.881108261E0,-2.247103453E-1,2.751946449E-2,6.226444244E-2
4.891184948E0,-2.063099146E-1,3.418344259E-2,5.461502075E-2
4.901259771E0,-2.483401895E-1,2.459883690E-2,2.306461334E-2
4.911332882E0,-2.661259174E-1,3.679311275E-2,-4.682064056E-2
4.921404460E0,-2.352959514E-1,2.756196260E-2,2.279996872E-1
4.931474610E0,-1.967629194E-1,3.267794847E-2,-7.661247253E-2
4.941543705E0,-2.128700614E-1,-6.392061710E-3,-7.476615906E-2
4.951648114E0,-2.533557415E-1,-3.785659373E-2,5.898284912E-2
4.961749983E0,-2.728618979E-1,-1.508805156E-2,3.950881958E-2
4.971849566E0,-2.068365812E-1,2.970638871E-2,-4.475784302E-2
4.981947086E0,-1.173305511E-1,1.633477211E-2,-5.234909058E-2
4.992042701E0,-8.068156242E-2,-2.481788397E-3,5.041503906E-2
5.002136441E0,-7.792919874E-2,-2.049750090E-2,7.399272919E-2
5.012228548E0,-7.854855061E-2,-2.798283100E-2,4.734325409E-2
5.022318996E0,-8.667790890E-2,5.573004484E-3,5.662536621E-2
5.032407796E0,-8.133196831E-2,8.018136024E-3,7.076358795E-2
5.042496729E0,-1.025710702E-1,3.140181303E-3,8.971405029E-2
5.052585862E0,-1.451035738E-1,-2.793073654E-2,9.427738190E-2
5.062675228E0,-1.597991586E-1,-2.999913692E-2,8.195972443E-2
5.072764494E0,-1.545483470E-1,-2.201092243E-2,2.887248993E-2
5.082853727E0,-1.780576706E-1,-7.041662931E-3,-5.036354065E-2
5.092943127E0,-1.544474959E-1,-1.175764203E-2,-1.939392090E-2
5.103032527E0,-1.406937242E-1,4.643410444E-3,-3.623962402E-4
5.113141960E0,-1.670602560E-1,1.395720243E-2,-3.901195526E-2
5.123251526E0,-1.188982129E-1,1.331037283E-2,-4.415416718E-2
5.133360959E0,-1.388629675E-1,1.003700495E-2,-1.089954376E-2
5.143470459E0,-7.080763578E-2,1.885843277E-2,5.830764771E-2
5.153579759E0,-6.863224506E-2,4.921704531E-2,7.732677460E-2
5.163689259E0,-8.180445433E-2,6.268355250E-2,6.529521942E-2
5.173781492E0,-8.051645756E-2,7.835566998E-2,3.410911560E-2
5.183873958E0,-6.921017170E-2,5.297821760E-2,1.966094971E-2
5.195310333E0,-7.657039165E-2,3.222489357E-2,-5.227661133E-2
5.205360333E0,-6.973099709E-2,1.148456335E-2,-7.392597198E-2
5.215410333E0,-6.605178118E-2,-1.753181219E-3,-2.154350281E-3
5.225461333E0,-4.580414295E-2,7.282584906E-3,6.003379822E-2
5.235511333E0,-6.637763977E-2,4.550924897E-2,4.081249237E-2
5.245561333E0,-4.849243164E-2,5.967614055E-2,-9.537696838E-3
5.255610933E0,-3.022563457E-2,3.270453215E-2,2.149772644E-2
5.265659766E0,-3.362375498E-2,3.275686502E-2,7.407093048E-2
5.275707908E0,-6.076997519E-2,-2.266168594E-4,6.676197052E-2
5.285756033E0,-9.313607216E-2,-1.417434216E-2,-2.541542053E-1
5.295804366E0,-1.159151793E-1,-5.600763857E-2,-2.612171173E-1
5.305852366E0,-7.419365644E-2,-5.882348120E-2,5.174140930E-1
5.315900093E0,-1.584720612E-2,-9.954839945E-3,2.066583633E-1
5.325947509E0,-6.040441990E-2,6.936818361E-3,-1.214179993E-1
5.335994662E0,-9.630489349E-2,4.857644439E-2,4.358291626E-2
5.346041304E0,-1.175650358E-1,3.672531247E-2,-1.745538712E-1
5.356121437E0,-1.113331914E-1,-4.505127668E-2,-1.581239700E-1
5.366199312E0,-8.954626322E-2,-7.069796324E-2,-6.239318848E-2
5.376275429E0,-8.017933369E-2,-6.315785646E-2,3.354835510E-2
5.386350040E0,-2.325785160E-2,-1.494339108E-2,1.582450867E-1
5.396423303E0,2.719038725E-2,1.373523474E-2,2.374134064E-1
5.406495103E0,1.397246122E-2,1.076829433E-2,1.776628494E-1
5.416565864E0,2.087271214E-2,1.926013827E-2,4.364013672E-2
5.426635500E0,-1.676362753E-2,1.070851088E-2,-3.298282623E-2
5.436738500E0,-6.871652603E-2,4.528164864E-4,-2.822494507E-2
5.446838958E0,-6.319648027E-2,5.118876696E-3,4.577636719E-4
5.456937118E0,-9.816235304E-2,2.423590422E-2,-3.552246094E-2
5.467033387E0,-8.508181572E-2,1.907137036E-2,-4.037857056E-2
5.477127683E0,-6.757164001E-2,2.038627863E-3,-6.905555725E-3
5.487220218E0,-5.287456512E-2,-5.159676075E-3,4.813861847E-2
5.497311045E0,-5.250823498E-2,-3.381073475E-4,4.332351685E-2
5.507400178E0,-5.930417776E-2,4.500830173E-2,3.132915497E-2
5.517488878E0,-5.647665262E-2,4.965704679E-2,2.172565460E-2
5.527577178E0,-5.160176754E-2,6.865593791E-2,1.214694977E-2
5.537665244E0,-7.318794727E-2,6.849038601E-2,2.412605286E-2
5.547753077E0,-1.160410643E-1,5.638784170E-2,3.129482269E-2
5.557840677E0,-8.643263578E-2,6.000876427E-3,1.208209991E-2
5.567928110E0,-6.637668610E-2,-1.307362318E-2,1.680469513E-2
5.578015476E0,-6.072598696E-2,-1.042097807E-2,3.349685669E-2
5.588102676E0,-3.124910593E-2,-2.964973450E-3,3.104114532E-2
5.598210376E0,-4.227685928E-2,9.243100882E-3,-6.958770752E-2
5.608318042E0,-2.886164188E-2,2.237528563E-3,8.353424072E-2
5.618425608E0,-3.192037344E-2,-1.191920042E-2,-2.783775330E-3
5.628533174E0,-4.145199060E-2,-1.911205053E-2,-8.914470673E-2
5.638640707E0,-6.338816881E-2,-4.110375047E-2,5.198669434E-2
5.648748407E0,-7.772862911E-2,-1.420664787E-2,1.366138458E-2
5.658839407E0,-6.423103809E-2,-8.718669415E-4,3.938674927E-3
5.668930540E0,-3.842544556E-2,-4.239708185E-3,-2.256774902E-2
5.679048273E0,1.030486822E-2,-2.763697505E-2,-8.276939392E-3
5.689165873E0,-4.137635231E-3,-2.728089690E-2,-1.098632812E-3
5.699283473E0,-1.572847366E-3,-9.340167046E-3,4.195022583E-2
5.709401139E0,-2.274024487E-2,-1.266548038E-2,4.667091370E-2
5.719518639E0,-2.932161093E-2,-2.086585760E-2,4.419517517E-2
5.729636239E0,-3.092062473E-2,-3.648790717E-2,8.002090454E-2
5.739727472E0,-2.956396341E-2,-5.937930942E-2,8.947563171E-2
5.749818872E0,-5.643129349E-2,-6.293633580E-2,9.410095215E-2
5.759910105E0,-7.037556171E-2,-1.322248578E-2,3.639698029E-2
5.770001138E0,-5.742925406E-2,8.094131947E-3,-2.853679657E-2
5.780092171E0,-6.895655394E-2,3.387463093E-2,-5.990409851E-2
5.790183337E0,-5.239719152E-2,3.275278211E-2,-2.178001404E-2
5.800274603E0,-7.681155205E-2,3.870671988E-2,-3.938674927E-4
5.810366103E0,-6.509679556E-2,2.079880238E-2,-1.254081726E-2
5.820457936E0,-5.834108591E-2,-1.748740673E-3,-2.468204498E-2
5.830550036E0,-6.638067961E-2,-1.975986362E-2,1.588726044E-2
5.840659369E0,-3.398227692E-2,-2.084314823E-3,4.690074921E-2
5.850768835E0,-4.249554873E-2,9.946227074E-4,6.836032867E-2
5.860878335E0,-4.993081093E-4,3.749620914E-2,5.149936676E-2
5.870988068E0,1.062816381E-2,2.813661098E-2,4.899787903E-2
5.881097934E0,3.699898720E-3,-1.531350613E-2,-3.839492798E-3
5.891207867E0,2.814471722E-3,-2.075570822E-2,-1.684188843E-3
5.901297233E0,-6.857037544E-3,-2.383944392E-2,2.915477753E-2
5.911386766E0,-2.852070332E-2,-9.020119905E-3,6.475257874E-2
5.921502466E0,-3.430807590E-2,-1.580914855E-2,1.900959015E-2
5.931618332E0,-5.056560040E-2,-6.144821644E-3,-1.469612122E-2
5.941734432E0,-6.488198042E-2,-2.052873373E-2,-4.836940765E-2
5.951850532E0,-5.781084299E-2,-3.550380468E-3,-2.457809448E-2
5.961966532E0,-5.342721939E-2,2.076336741E-2,1.622200012E-3
5.972082498E0,-3.454369307E-2,6.455808878E-3,1.824760437E-2
5.982171831E0,-3.624689579E-2,3.516086936E-2,1.326560974E-2
5.992261231E0,-2.040088177E-2,4.492050409E-2,3.217315674E-2
6.002350564E0,-6.915450096E-3,3.095051646E-2,9.895896912E-2
6.012439930E0,-3.887492418E-2,5.060726404E-2,4.842472076E-2
6.022529396E0,-4.454344511E-2,3.127044439E-2,-1.405906677E-2
6.032618796E0,-9.423875809E-2,2.293294668E-2,-4.619235992E-1
6.042708296E0,-1.022961736E-1,-4.016049206E-2,9.367084503E-2
6.052797896E0,-5.003213882E-4,-5.421167612E-2,4.628620148E-1
6.062887629E0,-3.325462341E-3,-3.641502559E-2,-6.604576111E-2
6.072977429E0,-8.506631851E-2,5.480706692E-3,-6.496429443E-3
6.083084929E0,-9.362858534E-2,3.949043155E-2,-1.935300827E-1
6.093192329E0,-9.367132187E-2,-3.572101891E-2,-2.753219604E-1
6.103299862E0,-1.404015124E-1,-9.497706592E-2,-2.183151245E-2
6.113407295E0,-7.893252373E-2,-1.006662846E-1,1.411256790E-1
6.123514661E0,-1.237457991E-2,-5.431698263E-2,2.202854156E-1
6.133622061E0,9.663611650E-2,7.017552853E-4,1.557111740E-1
6.143712361E0,1.306481957E-1,9.280592203E-3,1.197938919E-1
6.153802594E0,1.039291620E-1,3.224551678E-2,3.590106964E-2
6.165139333E0,7.618844509E-2,-2.586956322E-2,-3.132152557E-2
6.175187333E0,2.946257591E-4,-6.227312982E-2,-5.159378052E-3
6.185233333E0,-4.783886671E-2,-8.671607077E-2,-2.682113647E-2
6.195278333E0,-8.693647385E-2,-9.473629296E-2,-1.492404938E-2
6.205322666E0,-1.093977392E-1,-5.512499809E-2,-1.258754730E-2
6.215366666E0,-1.078430116E-1,-8.183389902E-3,-3.420162201E-2
6.225410066E0,-9.200489521E-2,6.038326025E-2,-1.271724701E-2
6.235453399E0,-7.875788212E-2,9.074226022E-2,-5.588531494E-3
6.245496256E0,-6.100875139E-2,7.805764675E-2,1.555442810E-3
6.255539006E0,-6.991922855E-2,3.443714976E-2,2.068424225E-2
6.265581561E0,-7.188540697E-2,5.358219147E-3,1.348590851E-2
6.275624561E0,-8.334928751E-2,2.826750278E-4,1.346397400E-2
6.285667833E0,-7.551985979E-2,-6.875544786E-3,1.455307007E-3
6.295711583E0,-6.514060497E-2,-2.227753401E-3,-1.055908203E-2
6.305755736E0,-5.213618279E-2,1.914003491E-2,-3.431320190E-3
6.315800378E0,-2.713960409E-2,2.118974924E-2,4.918861389E-2
6.325878978E0,-1.681166887E-2,3.508794308E-2,6.591701508E-2
6.335955790E0,-2.086389065E-2,4.148271680E-2,-9.212112427E-2
6.346031201E0,-1.948100328E-2,2.374976873E-2,2.753639221E-2
6.356105201E0,-6.116390228E-3,1.271545887E-3,2.070465088E-1
6.366177990E0,-5.637812614E-2,-2.354055643E-2,-2.240238190E-1
6.376249740E0,-7.334738970E-2,-6.627541780E-2,-8.283424377E-2
6.386320644E0,-4.625415802E-2,-5.579838157E-2,7.292461395E-2
6.396390507E0,8.785724640E-5,-2.420407534E-2,8.736515045E-2
6.406495072E0,3.272366524E-2,3.677606583E-4,8.389472961E-3
6.416597322E0,5.306863785E-2,6.797462702E-3,-8.278846741E-3
6.426697522E0,5.197757483E-2,-1.576653123E-2,1.096534729E-2
6.436795829E0,5.175721645E-2,-6.018579006E-3,5.167484283E-2
6.446892236E0,2.072912455E-2,-3.613960743E-2,7.797813416E-2
6.456986950E0,-1.029133797E-3,-5.436554551E-2,5.162715912E-2
6.467080087E0,-1.992088556E-2,-4.212899506E-2,4.681587219E-2
6.477171720E0,-3.819650412E-2,-4.007138312E-2,3.240966797E-2
6.487263420E0,-6.564867496E-2,-4.051662982E-2,1.319503784E-2
6.497355320E0,-7.374912500E-2,7.212013006E-3,-8.433341980E-3
6.507447353E0,-7.249766588E-2,-2.143713832E-2,-2.287292480E-2
6.517539653E0,-7.624506950E-2,7.734507322E-3,1.296806335E-2
6.527632219E0,-8.035391569E-2,1.580408216E-2,-8.643150330E-3
6.537724952E0,-9.129795432E-2,9.683519602E-3,-1.591491699E-2
6.547818018E0,-7.368308306E-2,3.519505262E-3,7.686614990E-4
6.557911351E0,-5.861836672E-2,-2.213594317E-2,-2.083873749E-2
6.568025151E0,-8.236917853E-2,-1.009571552E-2,-2.803325653E-2
6.578138951E0,-8.278122544E-2,-2.025946975E-2,-3.038883209E-2
6.588252917E0,-5.699437857E-2,5.313873291E-3,7.896423340E-4
6.598367017E0,-2.878302336E-2,4.755020142E-3,-1.560211182E-3
6.608481250E0,-2.219700813E-2,-7.731616497E-4,3.919601440E-2
6.618595516E0,-2.303373814E-2,2.232459188E-2,1.532554626E-2
6.628693016E0,7.348001003E-3,3.079798818E-2,8.215904236E-3
6.638790449E0,1.783728600E-3,2.498823404E-2,4.899120331E-2
6.648913515E0,1.277041435E-2,-1.176017523E-2,3.709983826E-2
6.659036581E0,7.258296013E-3,-1.231065392E-2,-1.312065125E-2
6.669159581E0,1.143050194E-2,-1.061692834E-2,-1.094818115E-3
6.679282547E0,2.040284872E-2,-4.070967436E-3,-3.695487976E-2
6.689405413E0,5.663573742E-3,-2.123415470E-4,-5.845451355E-2
6.699528379E0,-2.105879784E-2,-1.807767153E-2,-2.727508545E-2
6.709624145E0,7.366895676E-3,-1.643019915E-2,2.543640137E-2
6.719720011E0,-1.456409693E-2,-1.909241080E-2,2.067756653E-2
6.729815711E0,-1.692020893E-2,-4.069909453E-2,-4.875564575E-2
6.739911444E0,-3.141224384E-2,-2.871295810E-2,8.532714844E-2
6.750007277E0,6.303310394E-3,-1.036226749E-4,1.452198029E-1
6.760103110E0,1.586580276E-2,1.568648219E-2,7.102775574E-2
6.770199076E0,-7.195413113E-3,3.064140677E-2,6.145381927E-2
6.780295176E0,-4.046899080E-2,4.045116901E-2,-2.258024216E-1
6.790391409E0,-6.150060892E-2,1.828202605E-2,-4.626302719E-1
6.800487809E0,-5.964994431E-2,-8.463084698E-2,4.142398834E-1
6.810601542E0,3.359556198E-3,-5.097150803E-2,1.897754669E-1
6.820715108E0,-4.227352142E-2,-1.691460609E-3,-2.700872421E-1
6.830828741E0,-9.815895557E-2,-6.266564131E-3,-1.626625061E-1
6.840942441E0,-1.078104675E-1,-4.362642765E-2,-1.340265274E-1
6.851056141E0,-9.255957603E-2,-1.457120031E-1,-2.352714539E-3
6.861169941E0,-2.945780754E-2,-1.196045130E-1,2.037191391E-1
6.871263507E0,6.107884645E-2,-3.944253922E-2,2.447004318E-1
6.881357107E0,1.149862409E-1,2.566260099E-2,1.084308624E-1
6.891477207E0,1.304585338E-1,3.995096684E-2,1.034832001E-2
6.901597140E0,7.810091972E-2,2.253323793E-2,-2.077579498E-2
6.911716873E0,3.007292747E-2,-4.431366920E-3,-4.134178162E-3
6.921836373E0,-1.332587004E-2,-4.094019532E-2,-3.536701202E-2
6.931955706E0,-3.871405125E-2,-5.586646497E-2,-6.413841248E-2
6.942075006E0,-6.312537193E-2,-4.440075159E-2,-3.057575226E-2
6.952168372E0,-7.874017954E-2,-3.003954887E-2,-2.571296692E-2
6.962261672E0,-8.454006910E-2,1.199245453E-3,-4.107475281E-3
6.972354805E0,-6.433767080E-2,1.818013191E-2,7.497596741E-2
6.982447638E0,-5.674207211E-2,3.273689747E-2,9.903240204E-2
6.992540338E0,-3.325521946E-3,-2.796471119E-3,1.063032150E-1
7.002632904E0,7.423818111E-3,4.927247763E-3,4.890060425E-2
7.012725370E0,-1.504302025E-2,-3.759562969E-3,3.456592560E-2
7.022817736E0,-2.771723270E-2,1.984953880E-3,-2.766799927E-2
7.032911002E0,-2.766472101E-2,-6.894648075E-3,-8.538246155E-3
7.043004068E0,-1.796317101E-2,-8.960932493E-3,1.021385193E-3
7.053114268E0,5.744814873E-3,-1.688271761E-3,-2.051353455E-2
7.063224334E0,1.244544983E-2,-1.128497720E-2,2.500534058E-2
7.073334100E0,-1.701635122E-2,1.982635260E-2,3.462791443E-2
7.083443666E0,-4.803973436E-2,2.926361561E-2,-1.497268677E-1
7.093552999E0,-2.512776852E-2,5.158632994E-3,6.806564331E-2
7.103662032E0,-3.335583210E-2,-1.646041870E-3,7.754898071E-2
7.113753798E0,-3.084385395E-2,-6.107062101E-3,-1.165418625E-1
7.123845598E0,-6.890130043E-2,-2.358290553E-2,-1.789312363E-1
7.133963898E0,-7.414740324E-2,-4.644094408E-2,1.036500931E-1
7.144082031E0,-3.111231327E-2,-2.424597740E-2,3.743247986E-1
7.154200064E0,-1.576495171E-2,-3.368511796E-2,1.708993912E-1
7.164317830E0,5.237376690E-2,-4.968826473E-2,-8.290576935E-2
7.174435530E0,7.016384602E-2,-5.121780932E-2,-3.039550781E-2
7.184553396E0,6.279045343E-2,-1.282507181E-2,8.185291290E-2
7.194644729E0,6.736302376E-2,-9.619772434E-3,1.007089615E-1
7.204736229E0,5.020999908E-2,4.740893841E-3,5.256557465E-2
7.214827862E0,2.124845982E-3,1.790535450E-2,-1.949501038E-2
7.224919628E0,2.508580685E-3,-2.894997597E-4,-4.130172729E-2
7.235011694E0,-2.809882164E-2,1.328516006E-2,3.742408752E-2
7.245103894E0,-5.487453938E-2,-1.817420125E-2,-1.069927216E-2
7.255196260E0,-7.914492488E-2,-2.341520786E-2,-7.318782806E-2
7.265288693E0,-9.863516688E-2,-4.089167714E-2,-7.341766357E-2
7.275381293E0,-6.349194050E-2,-7.480680943E-4,-5.926036835E-2
7.285474059E0,-5.994182825E-2,3.551885486E-2,-9.537982941E-2
7.295583625E0,-5.469572544E-2,3.599721193E-2,5.004882812E-3
7.305693325E0,-6.966754794E-2,4.930585623E-3,-3.579711914E-2
7.315802991E0,-5.844545364E-2,-2.925440669E-2,-1.910686493E-2
7.325912657E0,3.021836281E-3,-2.565166354E-2,-1.197814941E-2
7.336021457E0,-2.711069584E-2,-4.567226768E-2,1.672363281E-2
7.346130390E0,-4.839831591E-2,-2.700617909E-2,1.911926270E-2
7.356222190E0,-3.126680851E-2,-1.050305367E-2,7.135391235E-3
7.366314190E0,-3.218436241E-2,5.745589733E-3,9.465217590E-3
7.376432556E0,-1.155179739E-2,1.979100704E-2,-1.215362549E-2
7.386551022E0,2.136296034E-2,3.375339508E-2,-4.575634003E-2
7.396669788E0,6.830132008E-2,4.521787167E-3,-1.948261261E-2
7.406788721E0,6.572365761E-3,-5.374452472E-2,3.318595886E-2
7.416907754E0,-5.034419894E-2,-5.680817366E-2,-3.423690796E-4
7.427026787E0,-3.376984596E-2,-5.475479364E-2,-3.875732422E-2
7.437119187E0,-3.562891483E-2,-4.946210980E-2,-7.803916931E-3
7.447211753E0,-4.077565670E-2,-4.157456756E-2,9.980678558E-2
7.457304453E0,-2.967178822E-2,-1.489719748E-2,1.404161453E-1
7.467397453E0,-1.475787163E-2,5.944371223E-3,4.691028595E-2
7.477490619E0,-1.146912575E-3,-6.107389927E-4,1.042137146E-1
7.487583785E0,-3.283083439E-3,1.112717390E-2,-1.592054367E-1
7.497676918E0,-8.158695698E-2,-2.611219883E-2,-3.937597275E-1
7.507770018E0,-1.017428935E-1,-6.715545058E-2,3.296260834E-1
7.517863051E0,-1.615625620E-2,-1.212367415E-2,1.336612701E-1
7.527956051E0,-2.382612228E-2,2.192747593E-2,-4.316139221E-1
7.538068617E0,-6.217837334E-2,-5.094617605E-3,-1.255779266E-1
7.548181150E0,-5.006906390E-2,-8.549171686E-2,3.711318970E-2
7.558293750E0,-8.543336391E-2,-8.422774076E-2,1.328630447E-1
7.568406416E0,-4.455319047E-2,-4.901957512E-2,1.832036972E-1
7.578519216E0,3.016054630E-2,5.265086889E-3,1.713552475E-1
7.588632149E0,1.139854789E-1,7.174119353E-2,6.123733521E-2
7.598728515E0,1.320156455E-1,6.121742725E-2,-3.696155548E-2
7.608824948E0,1.318539381E-1,4.074949026E-2,-2.746009827E-2
7.618947881E0,1.039298773E-1,1.085287333E-2,-1.082801819E-2
7.629071047E0,5.644911528E-2,-4.022061825E-2,3.693771362E-2
7.639194913E0,-1.011954248E-1,-5.267992616E-2,5.808830261E-3
7.649318846E0,-1.270799637E-1,-4.581648111E-2,-7.081890106E-2
7.659442879E0,-7.994252443E-2,-1.945531368E-2,-3.498935699E-2
7.669567012E0,-7.712370157E-2,9.619534016E-3,-1.502990723E-3
7.679665012E0,-5.870291591E-2,-2.149462700E-3,-6.260871887E-3
7.689763078E0,-8.526086807E-3,2.538651228E-3,-3.858566284E-3
7.699860978E0,-3.468561172E-2,9.504854679E-3,2.726459503E-2
7.709958978E0,-6.412491202E-2,-9.521752596E-3,-1.433372498E-3
7.720056878E0,-2.820190787E-2,-1.153546572E-2,2.488994598E-2
7.730154811E0,8.306622505E-3,-1.837936044E-2,8.090019226E-3
7.740252777E0,1.489967108E-3,-2.277374268E-2,5.663871765E-3
7.750350743E0,6.431639194E-3,-1.042273641E-2,8.563995361E-4
7.760448743E0,-2.165538073E-2,-1.250424981E-2,2.236175537E-2
7.770546609E0,-1.325038075E-2,2.358257771E-3,4.143810272E-2
7.780661709E0,-2.509713173E-3,2.705097198E-3,2.221488953E-2
7.790776675E0,3.694853187E-2,-1.626253128E-2,-7.601070404E-2
7.800891708E0,-2.868357301E-2,-4.494711757E-2,1.489639282E-2
7.811006741E0,-5.316096544E-2,-5.660691857E-2,7.943820953E-2
7.821121874E0,-3.394335508E-2,-3.942516446E-2,-1.315059662E-1
7.831237174E0,-7.514598966E-2,-3.502041101E-2,-2.370491028E-1
7.841332840E0,-5.812549591E-2,-6.779819727E-3,3.828525543E-2
7.851428740E0,1.456245780E-2,1.840600371E-2,1.963386536E-1
7.862887333E0,6.258082390E-2,3.912976384E-2,4.305458069E-2
7.872942333E0,3.711435199E-2,5.851089954E-4,-5.035305023E-2
7.882992333E0,4.763144255E-2,-5.509313941E-2,-4.891395569E-3
7.893041333E0,6.433680654E-2,-5.154496431E-2,5.960273743E-2
7.903090333E0,6.732717156E-2,-2.966660261E-2,1.000747681E-1
7.913139833E0,4.831984639E-2,-2.950787544E-2,8.551025391E-2
7.923189433E0,1.223134995E-2,-2.573600411E-2,3.269004822E-2
7.933239766E0,-1.882839203E-2,-1.807692647E-2,2.058792114E-2
7.943290051E0,-5.645334721E-2,-3.229963779E-2,4.677295685E-2
7.953340551E0,-8.408766985E-2,-3.651914001E-2,-3.685951233E-3
7.963391106E0,-9.995013475E-2,-4.285177588E-2,-6.132698059E-2
7.973441906E0,-8.528232574E-2,-1.562839746E-2,-4.471969604E-2
7.983492451E0,-6.586077809E-2,-1.463842392E-2,-3.768920898E-2
7.993542867E0,-1.535055041E-2,-1.124340296E-2,-2.586841583E-2
8.003593251E0,6.160348654E-3,-1.991900802E-2,-4.036808014E-2
8.013643393E0,-1.596671343E-2,-2.908632159E-2,-1.173305511E-2
8.023734593E0,-2.477765083E-3,-5.999042094E-2,4.804801941E-2
8.033822968E0,2.109283209E-2,-7.152521610E-2,3.357791901E-2
8.043909026E0,-3.964006901E-4,-3.508368134E-2,-9.642601013E-3
8.053993137E0,-2.468132973E-2,1.087874174E-2,-1.932525635E-2
8.064075294E0,-3.936704993E-2,1.128032804E-2,6.907463074E-3
8.074155844E0,-2.732861042E-2,6.696790457E-3,1.158046722E-2
8.084234939E0,1.390844584E-3,-4.223287106E-4,1.147365570E-2
8.094312575E0,-2.063700557E-2,-1.000106335E-2,8.996009827E-3
8.104423053E0,2.486050129E-3,-1.713350415E-2,-3.895854950E-2
8.114530844E0,-7.837623358E-3,-7.453501225E-3,-3.185081482E-2
8.124636164E0,-1.354411244E-2,6.790757179E-3,-2.712249756E-2
8.134739202E0,3.837019205E-3,4.102200270E-3,-1.038074493E-2
8.144840127E0,1.093384624E-2,1.830533147E-2,2.314567566E-2
8.154939091E0,8.142739534E-3,-3.110736609E-3,2.794837952E-2
8.165036228E0,1.528096199E-2,-9.898394346E-3,-1.515674591E-2
8.175131628E0,-1.762363315E-2,5.272030830E-5,-5.618095398E-3
8.185226761E0,-2.467375994E-2,7.617115974E-3,3.985500336E-2
8.195321827E0,-3.189381957E-2,2.905762196E-2,4.225444794E-2
8.205416827E0,-9.997427464E-3,2.152487636E-2,5.661487579E-2
8.215511627E0,-7.967174053E-3,3.288114071E-2,-2.138967514E-1
8.225606227E0,-2.506598830E-2,-7.323712111E-3,-2.089347839E-1
8.235700493E0,2.195993066E-2,-5.604998767E-2,4.547061920E-1
8.245794693E0,8.252641559E-2,-2.580243349E-2,1.174383163E-1
8.255888659E0,3.574863076E-2,-4.379600286E-2,-2.083644867E-1
8.265999125E0,-3.528890014E-2,2.555042505E-2,-1.056213379E-1
8.276109325E0,-9.937280416E-2,-4.482299089E-2,-1.344890594E-1
8.286219458E0,-1.281130314E-1,-1.034083068E-1,-1.345949173E-1
8.296329624E0,-1.095379293E-1,-1.206369400E-1,3.068161011E-2
8.306439757E0,-1.706576347E-2,-9.363669157E-2,2.272424698E-1
8.316549890E0,7.414847612E-2,-4.494513571E-2,2.034826279E-1
8.326639356E0,1.538999379E-1,-5.990892649E-3,7.664775848E-2
8.336728789E0,1.177034378E-1,5.855500698E-3,-7.133483887E-3
8.346844689E0,7.279205322E-2,-1.591336727E-2,-1.673126221E-2
8.356960389E0,3.596153855E-2,-4.218055308E-2,2.353668213E-3
8.367076122E0,-1.463949680E-3,-4.457156360E-2,-4.868507385E-3
8.377191855E0,-3.999590874E-2,-4.228244722E-2,-1.922035217E-2
8.387307521E0,-6.498485804E-2,-3.748309612E-2,-2.414703369E-3
8.397423254E0,-7.847225666E-2,1.326003671E-2,1.918983459E-2
8.407512954E0,-8.254143596E-2,2.330753207E-2,1.925373077E-2
8.417602820E0,-9.396693110E-2,-2.911746502E-3,2.574920654E-3
8.427692753E0,-5.719828606E-2,2.130052447E-2,1.460933685E-2
8.437782853E0,-2.962878346E-2,4.944235086E-3,1.704597473E-2
8.447873086E0,5.269110203E-3,1.989901066E-2,1.707553864E-2
8.457963519E0,2.094870806E-2,3.562539816E-3,9.932518005E-3
8.468053952E0,1.493078470E-2,1.485049725E-3,2.674007416E-2
8.478144652E0,1.390290260E-2,1.364979148E-2,5.234718323E-3
8.488235618E0,2.734020352E-2,-1.018103957E-2,-1.627254486E-2
8.498326751E0,3.846970201E-2,2.116405964E-2,4.840469360E-2
8.508437551E0,2.983918786E-2,-3.282427788E-4,2.452945709E-2
8.518548551E0,-5.006071925E-2,-2.426600456E-2,2.457046509E-2
8.528659717E0,-1.154218316E-1,-1.463341713E-2,-1.118669510E-1
8.538771017E0,-7.689902186E-2,-2.141666412E-2,6.288909912E-2
8.548882317E0,3.619691730E-2,-1.378664374E-2,4.369640350E-2
8.558993717E0,3.497633338E-2,-3.021302819E-2,-2.005767822E-1
8.569088517E0,-2.412512898E-2,-7.889555395E-2,-4.265785217E-3
8.579183283E0,-4.366028309E-2,-5.073516071E-2,1.179847717E-1
8.590546333E0,-5.447387695E-3,-5.735301971E-2,-2.077674866E-2
8.600593333E0,4.926055670E-3,-1.950028539E-2,-5.420684814E-2
8.610643333E0,5.025330186E-2,-3.994511068E-2,-2.292346954E-2
8.620691333E0,7.200056314E-2,7.775783539E-3,3.943538666E-2
8.630738666E0,5.390262604E-2,4.009902477E-3,7.538414001E-2
8.640785666E0,6.459984183E-2,-1.161080599E-2,7.541370392E-2
8.650833066E0,3.222760558E-2,-4.192365706E-2,3.475093842E-2
8.660880566E0,-2.808719873E-3,-5.583110452E-2,7.311916351E-2
8.670927851E0,1.027733088E-3,-4.837094247E-2,7.315731049E-2
8.680974851E0,-5.425286293E-2,-4.806040227E-2,7.794857025E-2
8.691021739E0,-7.316443324E-2,-2.356842160E-2,-2.024078369E-2
8.701068739E0,-9.189385176E-2,-2.767437696E-2,-5.379962921E-2
8.711116193E0,-7.984966040E-2,-1.520073414E-2,-3.945159912E-2
8.721163776E0,-8.188217878E-3,-2.947926521E-3,-5.142211914E-2
8.731213237E0,-3.611266613E-3,-1.467224956E-2,-2.508354187E-2
8.741262451E0,1.252081990E-2,-2.158984542E-2,-4.900169373E-2
8.751352317E0,1.689791679E-3,-1.435366273E-2,1.330757141E-2
8.761439692E0,-1.219484210E-2,-3.824989498E-2,4.452514648E-2
8.771524750E0,-6.598651409E-3,-2.193152905E-3,2.065753937E-2
8.781607472E0,4.054754972E-3,9.767055511E-3,-8.249282837E-4
8.791688103E0,9.925395250E-3,-4.903733730E-3,-5.540847778E-3
8.801767003E0,8.949249983E-3,-1.935938001E-2,-7.883071899E-3
8.811844622E0,3.465223312E-2,-2.595841885E-3,-1.024723053E-2
8.821920894E0,1.756656170E-2,-2.637544274E-2,4.130363464E-3
8.832853894E0,-9.461134672E-3,-2.406746149E-2,2.571487427E-2
8.843254333E0,-1.043257117E-2,-2.169847488E-2,9.004592896E-3
8.853305333E0,1.228139699E-1,-9.727835655E-3,-3.644275665E-2
8.863353333E0,6.659379601E-2,4.136562347E-5,5.937767029E-2
8.873402333E0,-2.154332399E-2,-9.030103683E-6,4.990005493E-2
8.883451666E0,-8.873167634E-2,2.020597458E-3,-3.604888916E-4
8.893501666E0,-8.287566900E-2,-1.523277164E-2,-2.673721313E-2
8.903551866E0,-3.944593668E-2,-4.923659563E-2,1.635551453E-2
8.913602366E0,3.217458725E-4,-2.536159754E-2,2.358627319E-2
8.923653366E0,4.530540109E-2,-2.995297313E-2,4.452705383E-3
8.933704491E0,5.967921019E-2,-3.229303658E-2,-1.709651947E-2
8.943755713E0,3.305429220E-2,-1.581230760E-2,-5.104064941E-3
8.953807313E0,1.680493355E-3,-6.332486868E-3,-2.694129944E-3
8.963858494E0,-1.964104176E-2,-2.326467633E-2,-3.861427307E-2
8.973909327E0,-4.107499123E-2,-3.062301874E-2,-2.701759338E-3
8.983960019E0,-4.404363036E-2,-3.066879511E-2,3.324127197E-2
8.994046233E0,-3.045234084E-2,-3.027367592E-2,3.087615967E-2
9.004129899E0,1.224815845E-2,-2.240797877E-2,-2.641677856E-3
9.014211461E0,4.023015499E-4,6.663829088E-3,-2.659988403E-2
9.024291108E0,-4.428327084E-3,-5.327165127E-4,1.889228821E-2
9.034368941E0,4.890561104E-4,1.148223877E-2,4.043292999E-2
9.044445204E0,-1.068145037E-3,8.937627077E-3,3.560638428E-2
9.054520054E0,-2.238464355E-2,2.723020315E-2,-3.498477936E-1
9.064593625E0,-3.561860323E-2,-1.434564590E-2,3.110599518E-2
9.074701715E0,9.206396341E-2,-4.448689520E-2,5.775403976E-1
9.084807149E0,9.565991163E-2,-1.700443029E-2,-1.859884262E-1
9.094910315E0,-5.249381065E-3,2.915561199E-4,-4.258155823E-2
9.105011435E0,-6.826436520E-2,9.344547987E-3,-1.576395035E-1
9.115110511E0,-1.139135659E-1,-4.713816941E-2,-2.129154205E-1
9.125207807E0,-1.316860914E-1,-1.152106822E-1,-1.604166031E-1
9.135303414E0,-6.036722660E-2,-1.125411689E-1,1.443481445E-2
9.145397379E0,5.556637049E-2,-6.753666699E-2,1.846904755E-1
9.155489679E0,1.695559025E-1,-2.304324508E-2,2.519903183E-1
9.165582045E0,1.760390401E-1,8.609205484E-3,1.898908615E-1
9.175674245E0,1.538010240E-1,1.338171959E-2,6.542873383E-2
9.185766311E0,7.310187817E-2,3.783881664E-3,1.990222931E-2
9.195857977E0,1.920235157E-2,-1.282051206E-2,-1.607608795E-2
9.205949443E0,-2.481263876E-2,-3.909613192E-2,-3.530979156E-2
9.216040709E0,-5.257436633E-2,-4.901191592E-2,-3.774547577E-2
9.226131875E0,-6.173714995E-2,-5.193904042E-2,-3.296470642E-2
9.236240075E0,-8.561098576E-2,-3.551138937E-2,5.347251892E-3
9.246348041E0,-1.007381082E-1,-6.890535355E-3,2.933311462E-2
9.256455741E0,-7.559627295E-2,3.865751624E-2,2.221202850E-2
9.266563441E0,-2.665758133E-2,3.631049395E-2,1.509857178E-2
9.276671041E0,2.207618952E-2,5.085998774E-2,-8.767127991E-3
9.286778507E0,-2.003943920E-2,1.039567590E-2,1.524448395E-2
9.296869273E0,1.210528612E-2,2.035382390E-2,8.124351501E-3
9.306960039E0,1.307904720E-3,-1.053693891E-2,1.297187805E-2
9.317895039E0,-2.075433731E-3,-8.134901524E-3,2.020645142E-2
9.328271333E0,2.579391003E-2,-1.071870327E-3,1.546764374E-2
9.338324333E0,5.974709988E-3,3.273129463E-3,3.227519989E-2
9.348377333E0,-2.803581953E-2,-2.339383960E-2,3.580093384E-3
9.358430833E0,3.055393696E-3,-2.142822742E-2,1.198768616E-3
9.368485166E0,1.263290644E-2,-1.227575541E-2,-9.934711456E-2
9.378539666E0,3.671711683E-2,-2.472797036E-2,5.867671967E-2
9.388593266E0,3.937733173E-2,-2.756856382E-2,-3.948783875E-2
9.398646432E0,3.371953964E-2,-3.039975464E-2,-1.425085068E-1
9.408699003E0,-3.699040413E-2,-4.579246044E-2,6.096649170E-2
9.418751003E0,-2.914315462E-2,-1.038438082E-2,2.994823456E-2
9.428802669E0,3.405690193E-3,-2.898693085E-3,-1.132965088E-3
9.438853769E0,-9.124875069E-3,-2.200505137E-2,-3.462314606E-2
9.448904678E0,2.259981632E-2,-3.764803708E-2,-8.154869080E-3
9.458955261E0,4.987776279E-2,-4.518838227E-2,1.348114014E-2
9.469005568E0,3.253054619E-2,-3.284828365E-2,4.702186584E-2
9.479097282E0,5.103403330E-2,-3.933225572E-2,3.746128082E-2
9.489185948E0,3.358513117E-2,-4.588794708E-2,5.184650421E-2
9.499271948E0,6.985187531E-3,-3.103230894E-2,4.705905914E-2
9.509355595E0,-3.831595182E-2,-4.981285334E-2,4.464435577E-2
9.519437095E0,-4.249078035E-2,-6.150726974E-2,5.178737640E-2
9.529517042E0,-1.738846302E-2,-2.265506983E-2,3.734397888E-2
9.539595492E0,-9.110033512E-3,-1.453882456E-2,-2.738475800E-2
9.549672396E0,-1.814979315E-2,-8.992463350E-3,-5.855751038E-2
9.560592396E0,-1.107102633E-2,-1.555442810E-3,-2.504062653E-2
9.570909333E0,3.323435783E-3,-2.248823643E-2,-8.298873901E-3
9.580957333E0,-3.787159920E-3,-4.774689674E-3,-3.705883026E-2
9.591006333E0,9.372234344E-4,-5.402611196E-2,-6.820774078E-2
9.601053333E0,1.480847597E-2,-5.079382658E-2,1.319980621E-2
9.611100666E0,2.533560991E-2,-3.080005944E-2,7.071685791E-2
9.621147416E0,8.906066418E-3,2.280154824E-2,6.840896606E-2
9.631194816E0,1.180863380E-2,4.026806355E-2,-1.290893555E-2
9.641242482E0,4.379272461E-3,2.866983414E-2,2.300834656E-2
9.651290624E0,1.158779860E-2,9.937018156E-3,3.257274628E-2
9.661338874E0,2.633941174E-2,-3.546974063E-2,1.100063324E-2
9.671386874E0,1.703292131E-2,-5.726306140E-2,1.578044891E-2
9.681434274E0,5.126357079E-3,-1.916821301E-2,1.578330994E-2
9.691481637E0,1.002866030E-2,-1.202020049E-2,3.493118286E-2
9.701528970E0,-9.023010731E-3,-9.725302458E-3,1.577472687E-2
9.711576431E0,-1.853758097E-2,1.149833202E-2,2.775096893E-2
9.721660359E0,-2.055346966E-2,-1.767975092E-2,6.194114685E-3
9.731741825E0,8.641600609E-3,-3.266219795E-2,1.336860657E-2
9.741821262E0,4.124522209E-3,-1.164007187E-2,1.097297668E-2
9.751898909E0,-3.219246864E-4,-1.934519410E-2,3.786087036E-3
9.761974575E0,-2.333164215E-3,-5.321890116E-3,3.773689270E-3
9.772048627E0,9.967863560E-3,1.837810874E-2,1.368522644E-3
9.782121277E0,-8.963406086E-3,-1.062098145E-2,8.545875549E-3
9.792192515E0,-1.809549332E-2,-3.246296942E-2,1.092338562E-2
9.802298969E0,-5.589663982E-3,-1.823934913E-2,-1.304340363E-2
9.812402708E0,5.038100481E-2,-1.101276278E-2,2.760791779E-2
9.822503916E0,5.817997456E-2,6.147503853E-3,2.995777130E-2
9.832602796E0,3.898912668E-2,-7.718026638E-3,5.388832092E-2
9.842699603E0,2.749174833E-2,-5.520443618E-2,7.540130615E-2
9.852794417E0,-2.421361208E-2,-4.789546132E-2,3.224945068E-2
9.862887452E0,-3.237730265E-2,-2.623783052E-2,5.833625793E-3
9.872978900E0,-1.921921968E-2,-1.393115520E-2,1.294517517E-2
9.883068866E0,-1.491665840E-3,-8.674353361E-3,2.245712280E-2
9.893158866E0,-1.248383522E-2,-1.799601316E-2,-8.727073669E-3
9.903248866E0,5.677521229E-3,-2.759216726E-2,-6.147289276E-2
9.913338799E0,6.876587868E-3,-1.072630286E-2,-4.477977753E-2
9.923428699E0,7.350206375E-3,-1.050832868E-2,4.616832733E-2
9.933518332E0,-2.145826817E-3,-1.744201779E-2,5.094623566E-2
9.943607832E0,-2.985233068E-2,-3.424678743E-2,-1.779556274E-3
9.953697198E0,-3.852665424E-3,-2.257786691E-2,-1.385116577E-2
9.963806731E0,7.540583611E-3,-2.323530614E-2,6.268405914E-2
9.973916397E0,-2.734541893E-3,-2.117894590E-2,5.781555176E-2
9.984026297E0,-5.366086960E-3,2.122223377E-3,3.138446808E-2
9.994136230E0,1.325100660E-2,4.400187731E-2,-3.565406799E-1
1.000424620E1,-1.850605011E-2,-2.064120770E-2,-4.519748688E-2
1.001435630E1,7.368433475E-2,-5.376428366E-2,6.184272766E-1
1.002444946E1,1.099034548E-1,-3.652651608E-2,-5.405330658E-2
1.003454256E1,5.426573753E-2,2.375802398E-2,-9.977912903E-2
1.004590933E1,-7.215589285E-2,3.927394748E-2,-1.262960434E-1
1.005595633E1,-1.223240793E-1,-3.691165149E-2,-1.456575394E-1
1.006600533E1,-1.118094027E-1,-9.897138178E-2,-4.043102264E-2
1.007605483E1,-4.738628864E-3,-1.021620333E-1,1.272802353E-1
1.008610317E1,8.331310749E-2,-7.053127885E-2,2.281036377E-1
1.009615192E1,1.156634688E-1,-5.920141935E-3,1.995630264E-1
1.010620112E1,1.347323060E-1,2.436238527E-2,1.110038757E-1
1.011625012E1,1.226409674E-1,3.305071592E-2,-1.620292664E-3
1.012629912E1,6.812459230E-2,5.788892508E-3,-1.611709595E-2
1.013634862E1,3.439599276E-2,-2.616949379E-2,-2.818107605E-2
1.014639817E1,-2.948701382E-3,-6.300361454E-2,2.919197083E-3
1.015644747E1,-5.334970355E-2,-8.333304524E-2,-3.056144714E-2
1.016649647E1,-8.009809256E-2,-4.093025625E-2,-8.974075317E-3
1.017654530E1,-8.535420895E-2,3.971040249E-3,-1.372146606E-2
1.018659407E1,-4.792234302E-2,2.490180731E-2,-2.562904358E-2
1.019664264E1,-2.307033539E-2,4.308143258E-2,-1.583099365E-3
1.020673171E1,-5.948245525E-3,3.971344233E-2,2.488708496E-2
1.021681834E1,-1.234072447E-2,1.743838191E-2,2.738666534E-2
1.022690257E1,-6.061971188E-3,9.835690260E-3,-1.564884186E-2
1.023698479E1,-1.147973537E-2,-2.382045984E-2,-1.321792603E-2
1.024706516E1,-4.805326462E-4,-2.146613598E-2,1.556587219E-2
1.025714391E1,1.737910509E-2,-2.633807063E-2,2.521324158E-2
1.026722105E1,-1.031363010E-2,-2.180969715E-2,3.965854645E-2
1.027729673E1,-2.402585745E-2,-2.181822062E-2,3.735828400E-2
1.028856533E1,3.276705742E-3,-2.172982693E-2,2.546119690E-2
1.029861133E1,1.631772518E-2,-1.939082146E-2,3.032302856E-2
1.030865533E1,1.786571741E-2,-2.891927958E-3,-7.975673676E-2
1.031869833E1,1.056927443E-2,-2.021673322E-2,-1.269817352E-2
1.032874267E1,5.853950977E-3,-8.985072374E-3,9.745216370E-2
1.033878742E1,-2.796888351E-2,-2.880617976E-2,-2.378301620E-1
1.034883222E1,-6.383177638E-2,-6.386345625E-2,1.826095581E-2
1.035887672E1,-6.114968657E-2,-6.457075477E-2,1.237392426E-1
1.036892114E1,-3.509938717E-3,-4.436300695E-2,7.594490051E-2
1.037896589E1,7.621824741E-3,-3.600616753E-2,-1.502132416E-2
1.038901100E1,1.405656338E-2,-4.093886912E-2,-7.483291626E-2
1.039905590E1,1.387619972E-2,-4.816873372E-2,-2.933120728E-2
1.040910045E1,3.156960011E-2,-4.472704232E-2,4.959678650E-2
1.041914503E1,1.138412952E-2,-5.024158955E-2,7.581424713E-2
1.042918965E1,-3.092122078E-2,-4.398463666E-2,9.009552002E-2
1.043923429E1,-3.024089336E-2,-4.786249995E-2,5.172729492E-2
1.044931322E1,-3.862649202E-2,-1.869794726E-2,4.686260223E-2
1.045938991E1,-5.853566527E-2,-6.889969110E-3,-8.288383484E-3
1.046946467E1,-6.358429790E-2,-2.709269524E-3,-4.190540314E-2
1.047953773E1,-6.823804975E-2,-1.113355160E-3,-2.525711060E-2
1.048960926E1,-3.516191244E-2,-1.588159800E-2,-8.591651917E-3
1.049967951E1,9.112715721E-3,-3.850996494E-3,5.709648132E-3
1.050974855E1,4.129201174E-2,-2.482718229E-2,-3.938674927E-3
1.051981646E1,3.349757195E-2,-9.603291750E-3,-2.081489563E-2
1.052991824E1,1.817345619E-4,-4.608243704E-3,-5.447578430E-2
1.054001770E1,-2.049273252E-2,-1.444956660E-2,-6.900405884E-2
1.055011494E1,-3.381744027E-2,-5.809962749E-3,-3.803253174E-2
1.056021013E1,-3.032568097E-2,-1.836907864E-2,-4.298400879E-2
1.057030328E1,-2.442377806E-2,-2.103340626E-2,-9.822177887E-2
1.058039464E1,-9.240508080E-3,5.268543959E-3,-4.092311859E-2
1.059048433E1,-7.732808590E-4,4.455545545E-2,2.111339569E-2
1.060057246E1,-1.081854105E-2,6.132203341E-2,6.153297424E-2
1.061066053E1,-4.737916589E-2,2.800923586E-2,-1.775074005E-2
1.062074863E1,-6.506440043E-2,-4.428565502E-2,8.342742920E-3
1.063083666E1,-8.048069477E-2,-1.075483859E-1,-2.060604095E-2
1.064092456E1,-5.545863509E-2,-1.114031971E-1,-4.234695435E-2
1.065101226E1,-2.190238237E-2,-8.676381409E-2,3.413295746E-2
1.066109979E1,2.766358852E-2,-3.356648982E-2,1.034688950E-1
1.067118766E1,5.084121227E-2,-1.630899310E-2,-4.360198975E-3
1.068127539E1,1.183763146E-2,-6.295114756E-3,1.709556580E-2
1.069137996E1,1.089349389E-2,3.267017007E-2,-6.932258606E-3
1.070148452E1,2.302294970E-2,9.712398052E-3,1.446914673E-2
1.071158919E1,2.312529087E-2,-2.771134675E-2,-4.313182831E-2
1.072169386E1,4.925885797E-2,-3.457370400E-2,-1.211833954E-2
1.073179849E1,5.825626850E-2,-6.605798006E-2,2.611351013E-2
1.074190309E1,4.781115055E-2,-1.073182523E-1,4.521083832E-2
1.075199055E1,2.716207504E-2,-5.535449088E-2,-5.088806152E-3
1.076207812E1,2.315530181E-2,-1.545438170E-2,-5.777645111E-2
1.077219232E1,1.637187600E-2,2.779126167E-3,-3.382873535E-2
1.078230655E1,1.138448715E-2,2.835085988E-2,-1.704025269E-2
1.079242089E1,1.303285360E-2,1.092728972E-2,-7.411003113E-3
1.080253522E1,-1.444190741E-2,-1.558154821E-3,2.617359161E-2
1.081264949E1,-3.359019756E-3,-3.057877719E-2,8.847141266E-2
1.082276368E1,-7.891476154E-3,-3.545950353E-2,2.142429352E-2
1.083285102E1,-1.829299331E-2,-2.620683610E-2,-2.173519135E-2
1.084293832E1,-1.144126058E-2,-1.466986537E-2,2.846050262E-2
1.085302552E1,-3.559213877E-2,-2.749694884E-2,1.162338257E-2
1.086311272E1,-4.291522503E-2,1.755952835E-4,-3.154659271E-2
1.087320002E1,-5.566531420E-2,2.287551761E-2,-2.326993942E-1
1.088328725E1,-1.116134226E-1,2.322795987E-2,-1.942968369E-1
1.089337428E1,-2.463540435E-2,1.653188467E-2,4.477596283E-1
1.090346128E1,7.544878125E-2,2.787250280E-2,2.681922913E-2
1.091354818E1,5.203828216E-2,5.922633410E-2,-5.472564697E-2
1.092363505E1,-3.113877773E-2,7.208612561E-2,-3.083801270E-2
1.093374252E1,-9.790819883E-2,-2.353852987E-2,-1.555299759E-1
1.094385002E1,-1.238589287E-1,-1.090869606E-1,-1.437702179E-1
1.095395758E1,-1.009796858E-1,-1.457059085E-1,-2.884578705E-2
1.096406528E1,-3.800445795E-2,-1.116344631E-1,1.030073166E-1
1.097417255E1,1.742738485E-2,-3.234465420E-2,2.013692856E-1
1.098427978E1,9.324702621E-2,5.169272423E-2,1.416568756E-1
1.099437001E1,1.367515326E-1,6.606212258E-2,6.992530823E-2
1.100446018E1,1.308968365E-1,3.536325693E-2,3.884029388E-2
1.101583433E1,1.024488807E-1,-4.503488541E-3,-5.696392059E-2
1.102587533E1,4.126313329E-2,-6.401233375E-2,-1.073017120E-1
1.103593933E1,-7.532000542E-3,-9.793780744E-2,-7.384204865E-2
1.104599233E1,-2.034422755E-2,-7.961568236E-2,2.905750275E-2
1.105604133E1,1.465263963E-2,-6.342242658E-2,1.032228470E-1
1.106608958E1,1.226964593E-2,-1.819011569E-2,5.055713654E-2
1.107613678E1,-4.185461998E-2,1.494866610E-2,1.711654663E-2
1.108618295E1,-4.772680998E-2,2.428543568E-2,1.238536835E-2
1.109622781E1,-8.073008060E-2,2.653479576E-2,1.236629486E-2
1.110627193E1,-6.307196617E-2,3.849446774E-2,4.823684692E-2
1.111631582E1,-1.998889446E-2,3.370642662E-4,6.259918213E-2
1.112635972E1,-2.058738470E-2,-2.021980286E-2,3.147602081E-2
1.113640372E1,-2.473622561E-3,-1.917299628E-2,9.948730469E-3
1.114644772E1,-7.880091667E-3,-3.752316535E-2,-3.074550629E-2
1.115649164E1,-5.259215832E-4,-2.233600616E-2,-3.077507019E-2
1.116653521E1,4.777419567E-2,-4.581689835E-3,3.861045837E-2
1.117661248E1,8.631196618E-2,3.682315350E-3,8.406066895E-2
1.118668754E1,1.153680980E-1,-1.013231277E-2,-1.413154602E-2
1.119676048E1,5.898204446E-2,-2.458406985E-2,-1.123428345E-1
1.120683165E1,2.276802063E-2,-5.573566258E-2,-9.489059448E-3
1.121690128E1,-4.892143607E-2,-2.633766830E-2,-1.532764435E-1
1.122696968E1,-7.869395614E-2,-4.069340229E-2,-1.486625671E-1
1.123703682E1,-9.395760298E-2,-2.709157765E-2,1.194391251E-1
1.124710296E1,-1.894405484E-2,-1.466551423E-2,1.027412415E-1
1.125720248E1,2.530395985E-2,-4.524666071E-2,4.532337189E-2
1.126729964E1,-1.070603728E-2,-8.919523656E-2,-3.605270386E-2
1.127739464E1,3.938376904E-3,-7.882604003E-2,2.383327484E-2
1.128748760E1,2.540209889E-2,-7.941418886E-2,2.385234833E-2
1.129757853E1,2.301219106E-2,-4.045993090E-2,9.469985962E-3
1.130766771E1,1.323816180E-2,-2.269078791E-2,7.058143616E-3
1.131775536E1,1.038700342E-3,-3.371985257E-2,5.253314972E-2
1.132784150E1,1.308619976E-2,-4.445731640E-3,3.815078735E-2
1.133792676E1,1.532095671E-2,-3.318046033E-2,6.209945679E-2
1.134801206E1,-1.099407673E-2,-4.504951835E-2,7.885551453E-2
1.135809736E1,-1.981806755E-2,-1.517772675E-3,5.007839203E-2
1.136818263E1,-1.944696903E-2,1.268625259E-3,3.808021545E-2
1.137826799E1,-1.701894403E-2,-8.592277765E-3,-7.404327393E-3
1.138835349E1,-1.207205653E-2,9.788990021E-3,3.570461273E-2
1.139843926E1,-2.378600836E-2,-1.089778543E-2,2.376174927E-2
1.140852516E1,-1.181116700E-2,-1.366776228E-2,4.298973083E-2
1.141862866E1,-1.011347771E-2,-3.450863063E-2,-2.358436584E-3
1.142873206E1,1.309451461E-2,-1.788166165E-2,5.527305603E-2
1.143883529E1,2.671727538E-2,-3.274539113E-2,9.136867523E-2
1.144893816E1,3.061237931E-2,1.929384470E-2,9.395790100E-2
1.145904082E1,2.480617166E-2,7.113572955E-2,2.713203430E-2
1.146914339E1,-1.963177323E-2,8.924016356E-2,-3.009223938E-2
1.147922906E1,-3.778824210E-2,1.000374258E-1,-1.136436462E-1
1.148931476E1,-4.835540056E-2,5.697181821E-2,-7.514190674E-2
1.149942722E1,-2.736893296E-2,2.030140162E-2,-6.783580780E-2
1.150953966E1,6.708800793E-4,-2.986341715E-2,-4.857730865E-2
1.151965206E1,1.527723670E-2,-2.875599265E-2,1.130676270E-2
1.152976422E1,5.880111456E-2,-2.969351411E-2,1.849937439E-2
1.153987619E1,1.984536648E-3,-3.315490484E-2,-1.262092590E-2
1.154998799E1,-3.805488348E-2,-3.446057439E-2,-5.428314209E-3
1.156007339E1,-4.910981655E-2,-3.097686172E-2,-7.822036743E-3
1.157015872E1,-5.084297061E-2,-2.027225494E-2,-3.414916992E-2
1.158024385E1,-2.453154325E-2,-7.139623165E-3,-1.974296570E-2
1.159032899E1,1.316648722E-2,-2.238637209E-2,-2.208042145E-2
1.160041425E1,9.923845530E-3,-3.269723058E-2,-1.722717285E-2
1.161049949E1,6.611436605E-3,-2.619558573E-2,-4.034042358E-4
1.162058465E1,1.523461938E-2,-3.409728408E-2,6.430912018E-2
1.163066959E1,1.890736818E-2,-4.672971368E-2,2.128791809E-2
1.164075462E1,1.634359360E-3,-4.992488027E-2,2.373218536E-2
1.165083955E1,1.416921616E-3,-3.405928612E-2,3.334903717E-2
1.166094172E1,-2.938780189E-2,-5.868858099E-2,-1.931571960E-2
1.167104378E1,-2.618658543E-2,-3.064522147E-2,-1.031284332E-1
1.168114578E1,-1.568028331E-2,-4.050055146E-2,-9.119224548E-2
1.169124782E1,-1.756635308E-2,-3.037935495E-2,-2.648353577E-3
1.170134992E1,8.616387844E-3,-2.702593803E-2,4.521179199E-2
1.171145198E1,8.568346500E-3,-2.590373158E-2,2.841663361E-2
1.172153658E1,-7.480293512E-3,-3.921538591E-3,-5.303382874E-2
1.173162128E1,-2.533093095E-2,-6.545454264E-3,-5.787563324E-2
1.174173232E1,-1.198318601E-2,5.205839872E-3,-2.680778503E-2
1.175184362E1,-1.728606224E-2,1.801708341E-2,4.011440277E-2
1.176195512E1,-1.640906930E-2,1.170173287E-2,-2.688074112E-1
1.177206675E1,-2.827668190E-2,-8.250534534E-3,-1.489639282E-1
1.178217841E1,5.338749290E-2,-5.094966292E-2,5.625047684E-1
1.179229008E1,1.024275720E-1,-7.678002119E-3,1.412925720E-1
1.180237511E1,6.053450704E-2,8.477866650E-4,-1.198911667E-1
1.181246018E1,-3.274098039E-2,6.800591946E-3,1.642322540E-2
1.182254518E1,-7.043355703E-2,-1.146432757E-2,-1.705732346E-1
1.183263028E1,-1.304419637E-1,-9.322327375E-2,-1.086826324E-1
1.184271561E1,-1.132711768E-1,-1.164052635E-1,-9.204387665E-2
1.185280098E1,-2.544942498E-2,-7.929395139E-2,3.974628448E-2
1.186288628E1,4.252758622E-2,-9.113639593E-3,1.476421356E-1
1.187297168E1,8.996573091E-2,5.108466744E-2,1.597366333E-1
1.188305738E1,8.311864734E-2,6.021627784E-2,1.335115433E-1
1.189314288E1,7.044601440E-2,3.357851505E-2,5.933475494E-2
1.190324548E1,2.821063995E-2,-1.162236929E-2,-2.211856842E-2
1.191334824E1,4.346868396E-2,-3.770497441E-2,-3.892803192E-2
1.192345101E1,2.935969830E-2,-8.100332320E-2,-2.456855774E-2
1.193355391E1,1.748168468E-2,-9.099841118E-2,-7.800102234E-3
1.194365678E1,-3.295055032E-2,-5.765861273E-2,-2.454757690E-2
1.195375968E1,-3.836348653E-2,6.866961718E-3,-1.733112335E-2
1.196384548E1,1.045495272E-3,2.590128779E-2,-2.900123596E-3
1.197393134E1,3.514793515E-2,4.748719931E-2,4.267406464E-2
1.198404384E1,6.152388453E-2,4.287841916E-2,6.193447113E-2
1.199415621E1,4.441499710E-3,3.586807847E-2,3.090190887E-2
1.200426851E1,-3.479242325E-2,1.474115252E-2,4.596710205E-3
1.201438081E1,-4.684132338E-2,-1.847836375E-2,6.985664368E-3
1.202449307E1,-3.746309876E-2,-2.800568938E-2,3.093624115E-2
1.203460541E1,5.340933800E-3,-3.052869439E-2,2.223968506E-3
1.204469164E1,2.453625202E-4,-3.796330094E-2,-2.541542053E-3
1.205477797E1,-1.913213730E-2,-3.125998378E-2,4.666328430E-3
1.206486401E1,-9.837120771E-3,-1.262676716E-2,1.906108856E-2
1.207494997E1,-1.969382167E-2,-1.553174853E-2,-9.638786316E-3
1.208503584E1,-6.912052631E-4,-1.102700830E-2,-7.426548004E-2
1.209512157E1,-3.110766411E-4,-3.496974707E-2,1.148567200E-1
1.210520724E1,-9.341001511E-3,-4.427075386E-2,-9.107971191E-2
1.211529300E1,-3.872597218E-2,-7.574407756E-2,-7.199859619E-2
1.212537897E1,-2.958029509E-2,-7.161277533E-2,6.451225281E-2
1.213546500E1,-1.737710834E-2,-2.807372808E-2,5.023765564E-2
1.214556834E1,2.225509286E-2,2.313512564E-2,-1.438331604E-2
1.215567184E1,3.557068110E-2,2.311423421E-2,-6.700420380E-2
1.216577550E1,3.894251585E-2,-4.007431865E-2,-4.296302795E-2
1.217587907E1,3.084665537E-2,-3.556743264E-2,2.412796021E-2
1.218598250E1,2.289155126E-2,-2.759051323E-2,1.456451416E-2
1.219608603E1,-1.602175832E-2,-1.432219148E-2,-5.248546600E-2
1.220617240E1,-5.030372739E-2,-2.526858449E-2,-7.163333893E-2
1.221625853E1,-4.312688112E-2,-1.260790229E-2,-4.292392731E-2
1.222637136E1,-5.970150232E-2,-3.371343017E-2,2.648448944E-2
1.223648413E1,-4.358875751E-2,-3.084725142E-2,7.199096680E-2
1.224659690E1,-3.961354494E-2,-1.465439796E-3,3.370380402E-2
1.225670970E1,-1.640972495E-2,-1.033237576E-2,-1.895427704E-2
1.226682236E1,-6.752610207E-4,-1.669669151E-2,-1.892852783E-2
1.227693500E1,3.133049607E-2,-2.780085802E-2,2.660846710E-2
1.228702100E1,1.088061929E-2,-1.505526900E-2,1.946640015E-2
1.229710696E1,1.738899946E-2,-2.643334866E-2,9.904861450E-3
1.230719266E1,1.434290409E-2,-2.613034844E-2,1.711177826E-2
1.231727840E1,-2.252689004E-2,-3.564399481E-2,9.973526001E-3
1.232736396E1,-3.289425373E-2,-2.872714400E-2,1.241683960E-2
1.233744933E1,-3.348070383E-2,-2.662456036E-2,1.724338531E-2
1.234753463E1,-1.017621160E-2,-1.449784636E-2,2.924060822E-2
1.235761983E1,5.808323622E-3,-2.290219069E-3,5.416870117E-4
1.236770543E1,9.900122881E-3,-1.873916388E-2,5.355834961E-3
1.237779126E1,-3.563463688E-4,-1.861530542E-2,1.975154877E-2
1.238789713E1,1.829347014E-2,-1.388505101E-2,2.696228027E-2
1.239800309E1,2.266010642E-2,-9.087562561E-3,2.937698364E-2
1.240810906E1,1.031744480E-2,-6.600052118E-3,1.023864746E-2
1.241821502E1,7.777333260E-3,-1.150143147E-2,1.503849030E-2
1.242832076E1,2.688768506E-2,-1.407077909E-2,1.744079590E-2
1.243842639E1,1.943796873E-2,-1.922124624E-2,1.985836029E-2
1.244851472E1,4.535865784E-2,-1.249366999E-2,7.924079895E-3
1.245860299E1,1.390913129E-2,-7.782012224E-3,2.948951721E-2
1.246993033E1,1.142621040E-2,-7.940411568E-3,1.752853394E-2
1.247997033E1,8.815079927E-3,-2.737188339E-2,3.191375732E-2
1.249000733E1,4.214310646E-2,-1.567077637E-2,3.672027588E-2
1.250004583E1,2.052721381E-2,-1.592123508E-2,2.236557007E-2
1.251008250E1,1.337531209E-2,-2.095088363E-2,2.715969086E-2
1.252011975E1,3.738343716E-3,-2.818581462E-2,8.010864258E-3
1.253015695E1,-5.765467882E-3,-2.847692370E-2,-1.592540741E-2
1.254019412E1,-3.698897362E-2,-2.408650517E-2,-3.985023499E-2
1.255023083E1,-2.786529064E-2,-3.407564759E-2,-3.742027283E-2
1.256026758E1,-2.390775084E-2,-2.722018957E-2,5.727767944E-3
1.257030469E1,-2.003309131E-2,-2.277633548E-2,4.648685455E-2
1.258034189E1,-4.050374031E-3,-1.073080301E-2,3.694629669E-2
1.259037889E1,-1.375320554E-2,-5.616009235E-3,-1.094055176E-2
1.260041614E1,-1.579877734E-2,-7.645457983E-3,-3.787040710E-3
1.261045337E1,-1.576656103E-2,9.210079908E-3,1.775646210E-2
1.262049066E1,-1.782572269E-2,1.829564571E-3,-6.196975708E-3
1.263056199E1,-3.120988607E-3,-2.493765950E-2,-1.338386536E-2
1.264063136E1,-3.377667069E-2,2.622902393E-4,-3.867454529E-1
1.265069919E1,-3.743770719E-2,-3.407701850E-2,-1.109991074E-1
1.266076563E1,4.480069876E-2,-7.280009985E-2,3.995113373E-1
1.267083074E1,6.935822964E-2,-6.508827209E-2,-6.967544556E-2
1.268089479E1,1.680123806E-2,3.990679979E-3,-2.198886871E-2
1.269095769E1,-2.391046286E-2,9.156376123E-3,-1.202373505E-1
1.270101978E1,-7.277429104E-2,-8.029423654E-2,-1.611356735E-1
1.271227833E1,-9.208810329E-2,-1.346612424E-1,-5.348300934E-2
1.272231933E1,-2.130901814E-2,-1.189347208E-1,6.157779694E-2
1.273235933E1,3.635436296E-2,-5.400723219E-2,1.982812881E-1
1.274239983E1,1.401194930E-1,2.254027128E-2,2.104673386E-1
1.275244017E1,1.494200826E-1,7.244580984E-2,1.938629150E-1
1.276248042E1,9.555143118E-2,4.770627618E-2,1.101551056E-1
1.277252122E1,8.424013853E-2,2.797633410E-2,2.397537231E-3
1.278256205E1,4.736846685E-2,-1.089030504E-2,-1.442146301E-2
1.279260262E1,4.356062412E-2,-4.974821210E-2,-7.275581360E-3
1.280264400E1,-1.215636730E-3,-7.878033817E-2,-8.870697021E-2
1.281268533E1,-8.169472218E-2,-6.925950944E-2,-9.593772888E-2
1.282272703E1,-7.823154330E-2,-2.639058232E-2,-5.049800873E-2
1.283276839E1,-7.440438867E-2,-1.695126295E-2,-7.474899292E-3
1.284281047E1,-6.411400437E-2,2.841669321E-2,1.164436340E-2
1.285285247E1,-2.708435059E-2,2.854782343E-2,1.410388947E-2
1.286289447E1,-1.639235020E-2,2.858367562E-2,1.177597046E-2
1.287297041E1,-3.186756372E-2,-2.336770296E-3,7.040977478E-3
1.288304403E1,-3.021419048E-2,-9.320586920E-3,-7.290840149E-3
1.289311568E1,-2.817767859E-2,-9.235322475E-3,1.427459717E-2
1.290318585E1,-2.084970474E-3,-9.280622005E-3,4.712104797E-3
1.291325463E1,7.460832596E-3,-2.632227540E-2,-2.161502838E-2
1.292332203E1,2.587318420E-3,-1.960560679E-2,-4.673004150E-5
1.293338813E1,1.427280903E-2,-2.958148718E-2,4.307556152E-2
1.294345308E1,2.613073587E-2,-1.305136085E-2,2.632904053E-2
1.295355108E1,3.790599108E-2,-1.991263032E-2,-1.221103668E-1
1.296364650E1,6.878197193E-3,-2.078834176E-2,-5.272960663E-2
1.297374050E1,-5.242171884E-2,-5.122637749E-2,-4.359264374E-1
1.298383231E1,-1.135860384E-1,-4.269018769E-2,-5.677795410E-1
1.299392208E1,-1.513143182E-1,-8.407978714E-2,-3.498039246E-1
1.300401019E1,-1.308702528E-1,-1.126780957E-1,1.438417435E-1
1.301409667E1,2.637380362E-2,-7.364396751E-2,3.072004318E-1
1.302418167E1,9.424924850E-2,-4.802198708E-2,1.544914246E-1
1.303426647E1,9.834915400E-2,-5.569979548E-2,1.382751465E-1
1.304435127E1,9.777766466E-2,-3.012710810E-2,1.747446060E-1
1.305443601E1,1.178897023E-1,-1.554587483E-2,2.518053055E-1
1.306452077E1,8.613121510E-2,-1.431733370E-3,1.347608566E-1
1.307460527E1,3.191334009E-2,3.847059608E-2,1.253814697E-1
1.308468974E1,-1.155859232E-2,3.717747331E-2,1.422834396E-1
1.309477424E1,-3.689891100E-2,3.830978274E-2,1.183977127E-1
1.310485857E1,-3.312230110E-2,3.194034100E-2,2.027606964E-2
1.311495967E1,-1.806831360E-2,2.280810475E-2,8.399009705E-3
1.312506074E1,-2.496886253E-2,-8.574426174E-4,5.401325226E-2
1.313516190E1,4.542535543E-2,-2.232763171E-2,7.325458527E-2
1.314526277E1,6.817811728E-2,-1.519232988E-2,1.108074188E-2
1.315536350E1,5.972695351E-2,-8.370846510E-3,-7.262611389E-2
1.316546410E1,8.957111835E-2,1.988461614E-2,4.957103729E-2
1.317554753E1,1.321696043E-1,-1.201164722E-2,8.792972565E-2
1.318563103E1,1.182473898E-1,3.614723682E-3,-7.835388184E-3
1.319574100E1,7.240545750E-2,-1.201242208E-2,3.531742096E-2
1.320585087E1,5.714666843E-2,-4.183502495E-2,-6.036472321E-2
1.321596063E1,-7.264316082E-3,-3.316359222E-2,-2.204799652E-2
1.322607040E1,-1.385313272E-2,-8.031547070E-3,1.889228821E-3
1.323618020E1,-2.512139082E-2,-3.324283659E-2,-3.403282166E-2
1.324629010E1,-2.010005713E-2,-4.111541808E-2,-7.712364197E-2
1.325637393E1,-3.530997038E-2,-7.233722508E-2,-5.241394043E-3
1.326645806E1,-7.822751999E-3,-7.931408286E-2,4.750347137E-2
1.327654156E1,3.248924017E-2,-8.172032237E-2,4.513454437E-2
1.328662533E1,-1.558417082E-2,-2.668747306E-2,1.162815094E-2
1.329670946E1,-2.789813280E-2,-2.440124750E-2,3.320121765E-2
1.330679380E1,-4.657316208E-2,-3.409560025E-2,5.711650848E-2
1.331687830E1,-3.338104486E-2,-4.142163694E-2,3.310108185E-2
1.332696313E1,-2.035814524E-2,-2.953991294E-2,6.416130066E-2
1.333704836E1,4.165828228E-3,-3.170818090E-3,4.268646240E-3
1.334713356E1,-1.873457432E-2,-3.890924156E-2,1.856422424E-2
1.335723573E1,-2.697348595E-2,-1.480931044E-2,-4.377365112E-2
1.336733783E1,-2.074432373E-2,-1.237553358E-2,8.807182312E-3
1.337744003E1,4.007810354E-2,-5.055904388E-3,-8.335113525E-4
1.338754213E1,-2.312004566E-3,4.865407944E-3,-6.313610077E-2
1.339764429E1,1.455557346E-2,-1.396951079E-2,-4.878711700E-2
1.340774646E1,4.607760906E-2,-1.868560910E-2,-1.050662994E-2
1.341783186E1,6.136637926E-2,-2.356249094E-2,3.492736816E-2
1.342791713E1,4.948610067E-2,-2.808770537E-2,-5.366992950E-2
1.343802876E1,2.951443195E-3,-3.536790609E-3,3.017520905E-2
1.344814039E1,4.309445620E-2,-7.462769747E-3,5.173397064E-2
1.345825219E1,7.037729025E-2,1.202711463E-2,1.096439362E-2
1.346836409E1,1.597118378E-2,4.874199629E-3,1.345634460E-3
1.347847612E1,4.695779085E-2,-1.455754042E-2,1.333332062E-2
1.348858813E1,2.902221680E-2,-4.494071007E-3,-3.464031219E-2
1.349867366E1,-1.046478748E-3,5.113214254E-3,-2.286367416E-1
1.350875916E1,-6.012105942E-2,-1.113569736E-2,-7.525634766E-2
1.351884446E1,-3.957414627E-2,-3.388527036E-2,5.476980209E-1
1.352892989E1,7.424473763E-2,2.393126488E-4,8.828067780E-2
1.353901549E1,2.896672487E-2,1.915284991E-2,-1.800260544E-1
1.354910106E1,-3.470206261E-2,1.505920291E-2,-2.687835693E-2
1.355918662E1,-1.219867468E-1,-1.889538765E-2,-2.233390808E-1
1.356927219E1,-1.494390666E-1,-1.143197715E-1,-1.182994843E-1
1.357935782E1,-1.392266452E-1,-1.337710470E-1,-7.290649414E-2
1.358944336E1,-3.916656971E-2,-1.378002167E-1,5.175113678E-2
1.359954632E1,5.990970135E-2,-7.267947495E-2,1.357774734E-1
1.360964895E1,1.164520383E-1,2.860498428E-2,1.479387283E-1
1.361975145E1,1.235632896E-1,5.554065108E-2,1.145591736E-1
1.362985362E1,9.362238646E-2,5.144026875E-2,9.272575378E-3
1.363995542E1,5.304652452E-2,2.084752917E-2,-5.060482025E-2
1.365005705E1,2.200675011E-2,-7.520198822E-3,-5.301380157E-2
1.366014172E1,2.638399601E-3,-4.107774794E-2,-5.778789520E-2
1.367022628E1,-2.908527851E-3,-5.127260089E-2,-5.532836914E-2
1.368033835E1,-2.344423532E-2,-3.075180948E-2,2.247810364E-3
1.369045065E1,-4.891574383E-3,3.682553768E-3,8.583068848E-5
1.370056342E1,1.553368568E-2,4.996335506E-2,-1.640415192E-2
1.371067605E1,-2.456605434E-3,5.079033971E-2,1.260375977E-2
1.372078855E1,2.971476316E-2,6.403377652E-2,9.906959534E-2
1.373090328E1,5.272394419E-2,4.902353883E-2,5.860328674E-2
1.374099178E1,2.598792315E-2,8.042633533E-3,5.879497528E-2
1.375108032E1,1.929610968E-2,-1.604193449E-2,8.047294617E-2
1.376116865E1,1.635289192E-2,-5.447235703E-2,9.487724304E-2
1.377125688E1,-2.448678017E-3,-6.905467808E-2,4.697608948E-2
1.378134518E1,-4.542046785E-2,-7.439897954E-2,4.937839508E-2
1.379143355E1,-4.307538271E-2,-5.089537799E-2,3.742218018E-2
1.380152185E1,-2.216339111E-3,-3.275007010E-3,-3.281593323E-3
1.381161011E1,-4.456222057E-3,2.768281102E-2,-3.441238403E-2
1.382169858E1,3.158801794E-2,1.537668705E-2,-8.708381653E-2
1.383178688E1,3.679460287E-2,-3.275862336E-2,1.020374298E-1
1.384188905E1,3.283053637E-2,-5.910655856E-2,-1.829271317E-1
1.385199121E1,-3.433859348E-2,-9.345021844E-2,-1.471385956E-1
1.386209331E1,-3.606337309E-2,-7.768468559E-2,-3.702163696E-2
1.387219521E1,-4.645115137E-2,-5.904841423E-2,1.353263855E-3
1.388229708E1,-1.841837168E-2,-1.862868667E-2,-2.971744537E-2
1.389239884E1,-2.981901169E-3,-1.911202073E-2,-4.637527466E-2
1.390248301E1,1.262545586E-3,-3.466075659E-2,-2.460002899E-2
1.391256728E1,3.163200617E-2,-1.399499178E-2,-1.000118256E-2
1.392267808E1,4.106062651E-2,-2.883592248E-2,5.961418152E-2
1.393278891E1,4.866206646E-2,-1.204738021E-2,6.932163239E-2
1.394290004E1,4.437744617E-2,-3.842431307E-2,8.860397339E-2
1.395301131E1,4.762965441E-2,-2.897626162E-2,2.167320251E-2
1.396312267E1,5.644410849E-2,-2.687203884E-2,3.370285034E-2
1.397323407E1,-1.199543476E-3,-5.320550501E-2,2.653312683E-2
1.398331801E1,-1.741880178E-2,-2.886795998E-2,2.169704437E-2
1.399340171E1,-2.859759331E-2,-6.751984358E-3,-4.301548004E-2
1.400348471E1,-5.486881733E-2,-1.839220524E-2,-6.936550140E-2
1.401356757E1,-3.929513693E-2,7.382929325E-4,-2.858448029E-2
1.402365051E1,-2.930372953E-2,3.878122568E-2,-6.895065308E-3
1.403373117E1,-2.190417051E-2,4.297238588E-2,-2.109527588E-2
1.404381167E1,-2.406418324E-3,4.007461667E-2,5.393981934E-3
1.405389217E1,1.940613985E-2,1.848104596E-2,5.540847778E-3
1.406397287E1,2.233612537E-2,-2.454751730E-2,-6.304740906E-3
1.407405364E1,2.290898561E-2,-4.619629681E-2,5.846595764E-2
1.408415164E1,1.891261339E-2,-5.339960754E-2,4.899978638E-2
1.409424954E1,1.773023605E-2,-4.377119243E-2,6.105136871E-2
1.410434760E1,3.131186962E-2,-4.350571334E-2,1.800251007E-2
1.411444567E1,2.864843607E-2,-2.880749106E-2,-1.550769806E-2
1.412454367E1,4.286849499E-2,-6.941527128E-3,1.801204681E-2
1.413464167E1,4.023712873E-2,-1.868307590E-3,1.802062988E-2
1.414472567E1,3.978830576E-2,1.989120245E-2,1.086235046E-2
1.415480964E1,1.038467884E-2,6.338059902E-4,6.123542786E-3
1.416492010E1,1.406270266E-2,-3.541526198E-2,2.775287628E-2
1.417503064E1,3.221338987E-2,-4.446029663E-3,3.979682922E-2
1.418514120E1,3.360652924E-2,-2.856981754E-2,3.508281708E-2
1.419525193E1,3.731179237E-2,-1.905673742E-2,3.994846344E-2
1.420536267E1,7.234317064E-2,-6.953924894E-3,5.916023254E-2
1.421547357E1,4.545718431E-2,-2.132377028E-2,2.328681946E-2
1.422555803E1,4.522860050E-3,-2.872100472E-2,-1.978683472E-2
1.423564257E1,-7.622480392E-3,-4.551021755E-2,-1.498603821E-2
1.424572690E1,4.218697548E-3,-2.361404896E-2,-2.216911316E-2
1.425581143E1,-1.035916805E-2,-4.959453642E-2,-7.799148560E-3
1.426589603E1,-3.898262978E-3,-4.729710519E-2,2.098369598E-2
1.427598077E1,7.255494595E-3,-4.015949368E-2,4.259109497E-2
1.428606550E1,1.890820265E-2,-1.119816303E-2,2.584648132E-2
1.429615030E1,2.610719204E-2,1.524201035E-2,1.866054535E-2
1.430623526E1,1.925450563E-2,3.160536289E-3,4.258155823E-2
1.431632033E1,-1.720607281E-3,7.899552584E-3,3.296661377E-2
1.432642273E1,-2.706307173E-2,-4.091709852E-3,-7.962989807E-2
1.433652526E1,-3.643226624E-2,4.747092724E-3,-2.855253220E-1
1.434662773E1,-2.638518810E-3,-4.390794039E-2,3.132658005E-1
1.435673013E1,7.386118174E-2,-3.027302027E-2,1.724433899E-1
1.436683233E1,5.640506744E-2,-2.045109868E-2,-1.916017532E-1
1.437693443E1,-1.111626625E-4,1.014366746E-2,6.924438477E-2
1.438701920E1,-5.290734768E-2,2.494928241E-2,-1.271533966E-1
1.439710393E1,-7.473468781E-2,-4.669447243E-2,-1.752595901E-1
1.440721489E1,-6.057810783E-2,-1.046656817E-1,-7.704734802E-3
1.441732583E1,-3.274619579E-2,-8.914998174E-2,5.235004425E-2
1.442743693E1,5.918377638E-2,-6.225883961E-2,1.316137314E-1
1.443754809E1,1.254718900E-1,-1.380300522E-2,1.509742737E-1
1.444765903E1,1.474115252E-1,3.666967154E-2,1.295642853E-1
1.445776989E1,1.275544763E-1,2.924937010E-2,5.300617218E-2
1.446785423E1,4.662853479E-2,3.125965595E-4,1.227664948E-2
1.447793836E1,2.611368895E-2,-2.607962489E-2,5.022048950E-3
1.448802212E1,1.034134626E-2,-4.530070722E-2,-2.617073059E-2
1.449810562E1,-8.154988289E-3,-5.760663748E-2,-5.733299255E-2
1.450818896E1,-2.944469452E-2,-4.853080213E-2,-1.424121857E-2
1.451827212E1,-3.662437201E-2,-1.084718108E-2,-2.858924866E-2
1.452835512E1,-1.784175634E-2,4.326999187E-4,-6.996154785E-3
1.453843809E1,-2.343147993E-2,6.195807457E-2,1.462936401E-2
1.454852119E1,-1.012992859E-2,7.568976283E-2,1.951217651E-2
1.455860422E1,-2.552813292E-2,7.050472498E-2,1.241397858E-2
1.456870429E1,1.925176382E-2,1.754203439E-2,3.162670135E-2
1.457880439E1,-1.212608814E-2,5.491077900E-4,4.601669312E-2
1.458890439E1,-2.303600311E-3,-3.053465486E-2,3.881549835E-2
1.459900432E1,1.478850842E-2,-9.124904871E-3,4.119014740E-2
1.460910415E1,5.557179451E-3,-1.170206070E-2,2.441120148E-2
1.461920409E1,-1.005887985E-3,-1.428520679E-2,1.000690460E-2
1.462928662E1,2.609509230E-2,-1.680219173E-2,3.868579865E-2
1.463936895E1,5.186557770E-3,-2.487301826E-3,-1.402950287E-2
1.464947762E1,1.802712679E-2,-5.118936300E-3,-1.074590683E-1
1.465958638E1,4.288548231E-2,-2.425587177E-2,1.725969315E-1
1.466969552E1,3.195565939E-2,-1.679381728E-2,-5.732822418E-2
1.467980498E1,9.360909462E-4,-3.389242291E-2,-1.460809708E-1
1.468991452E1,-2.227205038E-2,-4.665373266E-2,3.345489502E-2
1.470002422E1,1.526498795E-2,-4.934839904E-2,9.337234497E-2
1.471010775E1,3.470408916E-2,-5.865834653E-2,2.630710602E-2
1.472019142E1,4.483467340E-2,-2.724385262E-2,-7.534027100E-5
1.473027492E1,6.115180254E-2,-2.552476525E-2,2.152252197E-2
1.474035865E1,2.941870689E-2,-5.485795438E-2,4.791927338E-2
1.475044268E1,3.652518988E-2,-6.161129475E-2,4.791259766E-2
1.476052685E1,4.593551159E-2,-2.954480052E-2,6.465625763E-2
1.477061111E1,5.725890398E-2,-1.900625229E-2,5.988502502E-2
1.478069551E1,2.523118258E-2,-3.013715148E-2,4.077148438E-2
1.479078018E1,1.765275002E-2,-7.367193699E-3,6.231403351E-2
1.480086481E1,7.479667664E-3,-8.227825165E-3,7.667732239E-2
1.481096638E1,-2.962648869E-3,-2.107322216E-3,4.318332672E-2
1.482106785E1,8.658766747E-4,-1.539918780E-2,1.249313354E-4
1.483116931E1,-4.159212112E-4,6.955534220E-3,-1.177787781E-2
1.484127068E1,-9.380340576E-3,5.412101746E-5,-2.123546600E-2
1.485137214E1,-3.292959929E-2,-1.938995719E-2,-1.390075684E-2
1.486147361E1,-6.104886532E-3,1.816272736E-3,1.258182526E-2
1.487155784E1,1.349270344E-2,-5.608439445E-3,7.581710815E-4
1.488164194E1,-3.877878189E-4,-1.075047255E-2,-8.670806885E-3
1.489175301E1,-1.686429977E-2,-3.548038006E-2,-1.328468323E-2
1.490186404E1,-2.384245396E-3,-2.461099625E-2,-1.548290253E-2
1.491197514E1,-1.673972607E-2,-4.099279642E-3,6.268501282E-3
1.492208631E1,1.916396618E-2,-2.377331257E-4,6.470680237E-3
1.493219747E1,3.097105026E-2,1.832300425E-2,-1.726627350E-2
1.494230871E1,2.627295256E-2,5.142915249E-2,-3.261566162E-4
1.495239361E1,2.186280489E-2,2.938222885E-2,-1.630783081E-4
1.496247834E1,1.534247398E-2,4.661947489E-3,4.776000977E-3
1.497256267E1,1.865833998E-2,-1.325038075E-2,1.449489594E-2
1.498264677E1,3.333389759E-3,-1.913028955E-2,2.627372742E-3
1.499273097E1,-9.343683720E-3,-1.052191854E-2,9.889602661E-3
1.500281521E1,1.644867659E-2,2.853304148E-3,2.432441711E-2
1.501289927E1,6.572961807E-3,-1.013338566E-2,1.001071930E-2
1.502298330E1,2.087104321E-2,-3.765025735E-2,5.262374878E-3
1.503306740E1,3.789901733E-3,-3.110596538E-2,5.304336548E-3
1.504315124E1,3.827810287E-3,-4.093870521E-2,1.009750366E-2
1.505325217E1,-1.730364561E-2,-4.100248218E-2,-1.387310028E-2
1.506335297E1,-6.924569607E-3,-2.893537283E-2,-2.830123901E-2
1.507345377E1,3.578007221E-3,-5.526752770E-2,-5.231189728E-2
1.508355464E1,9.091079235E-3,-6.015922129E-2,-2.602577209E-2
1.509365534E1,2.386170626E-2,-4.582199454E-2,1.704025269E-2
1.510375604E1,1.744675636E-2,-2.376466990E-2,3.133296967E-2
1.511383977E1,3.053301573E-2,-8.458286524E-3,4.080009460E-2
1.512392344E1,-9.246230125E-3,-2.755075693E-3,5.985832214E-2
1.513403334E1,8.669614792E-3,1.227530837E-2,5.257129669E-2
1.514414304E1,1.047456264E-2,-6.800115108E-3,3.806972504E-2
1.515425254E1,9.919762611E-3,4.404127598E-3,-5.781078339E-2
1.516436180E1,-6.237268448E-3,7.100105286E-4,-3.307561874E-1
1.517447100E1,-2.044916153E-2,-4.783940315E-2,2.369251251E-1
1.518458030E1,7.258623838E-2,-6.267289817E-2,2.756958008E-1
1.519466263E1,3.335577250E-2,-2.937817574E-2,-1.408195496E-1
1.520474493E1,-2.054715157E-2,3.008812666E-2,2.405643463E-2
1.521482693E1,-6.363773346E-2,7.450699806E-3,-1.701593399E-1
1.522490893E1,-8.823460340E-2,-3.674963117E-2,-1.777534485E-1
1.523499100E1,-9.983444214E-2,-9.859383106E-2,-3.258705139E-3
1.524507310E1,-5.482435226E-4,-7.505582273E-2,1.093044281E-1
1.525515537E1,8.062529564E-2,-2.875486016E-2,1.453857422E-1
1.526523780E1,1.079978943E-1,2.421426773E-2,1.454772949E-1
1.527532033E1,1.199296117E-1,2.642098069E-2,9.760189056E-2
1.528540283E1,8.275783062E-2,1.901179552E-3,4.486179352E-2
1.529550213E1,8.499383926E-2,-3.456711769E-2,-1.035308838E-2
1.530560120E1,6.554234028E-2,-4.232586920E-2,-1.048946381E-2
1.531570016E1,-2.651453018E-3,-7.632185519E-2,3.799438477E-3
1.532579900E1,-2.587074041E-2,-7.898898423E-2,-1.300430298E-2
1.533589773E1,-5.164790154E-2,-4.809440672E-2,1.808643341E-2
1.534599633E1,-4.864990711E-2,-1.465934515E-2,-1.307964325E-2
1.535607763E1,-5.237126350E-2,1.858723164E-2,1.079177856E-2
1.536615890E1,-3.427392244E-2,2.768528461E-2,3.943920135E-2
1.537626656E1,-1.353186369E-2,8.104979992E-3,3.454875946E-2
1.538637406E1,-2.127599716E-2,6.732046604E-4,5.357837677E-2
1.539648166E1,-5.233287811E-5,-1.597315073E-2,6.060791016E-2
1.540658933E1,-9.595453739E-3,-2.761310339E-2,3.887748718E-2
1.541669693E1,-2.328509092E-2,-1.270356774E-2,7.516860962E-3
1.542680449E1,-1.740121841E-2,-2.642196417E-2,1.922225952E-2
1.543688583E1,-1.127243042E-2,-5.442498624E-2,5.724525452E-2
1.544696733E1,1.172244549E-2,-3.716108203E-2,4.259586334E-2
1.545704873E1,3.744852543E-2,-1.744389534E-2,5.425834656E-2
1.546713016E1,2.773344517E-2,-2.526104450E-3,-2.508831024E-2
1.547721166E1,2.855944633E-2,-4.413127899E-3,-6.140232086E-2
1.548729306E1,2.488642931E-2,1.184940338E-3,1.464681625E-1
1.549737456E1,5.271315575E-3,-1.212418079E-2,-6.949520111E-2
1.550745623E1,-2.845031023E-2,-1.902025938E-2,-1.585559845E-1
1.551753829E1,-3.360348940E-2,-2.870467305E-2,-1.085672379E-1
1.552762029E1,-6.647348404E-3,-1.841455698E-2,7.077789307E-2
1.553771926E1,8.163213730E-3,-1.183396578E-2,1.786899567E-2
1.554781826E1,3.705191612E-2,-1.329565048E-2,-1.344776154E-2
1.555791722E1,4.083621502E-2,-3.494931757E-2,-2.790069580E-2
1.556801616E1,5.400073528E-2,-2.290436625E-2,7.932662964E-3
1.557811532E1,4.126030207E-2,-1.957377791E-2,6.765651703E-2
1.558821449E1,4.800021648E-2,-4.438458383E-2,4.593944550E-2
1.559829696E1,3.315633535E-2,-2.859863639E-2,6.493091583E-2
1.560837966E1,1.824283600E-2,-6.382666528E-2,6.000518799E-2
1.561970733E1,1.129072905E-2,-6.577436626E-2,4.067134857E-2
1.562974733E1,-2.114355564E-3,-1.742169261E-2,2.607917786E-2
1.563979333E1,-1.334041357E-2,-4.557746649E-2,-1.723098755E-2
1.564983533E1,-3.408730030E-2,-2.597215772E-2,-4.138660431E-2
1.565987733E1,-2.366280556E-2,2.779453993E-3,-5.116844177E-2
1.566991883E1,-2.277463675E-2,4.578378797E-2,-4.179382324E-2
1.567996023E1,-4.165405035E-2,3.644606471E-2,-2.520656586E-2
1.569000223E1,-4.458498955E-2,2.257591486E-2,-2.772903442E-2
1.570004338E1,-6.015652418E-2,2.527758479E-2,-2.062797546E-2
1.571008425E1,-4.539841413E-2,-1.366168261E-3,-4.458618164E-2
1.572012447E1,-4.551714659E-2,7.474690676E-3,-2.540588379E-2
1.573016437E1,-2.650517225E-2,-9.849101305E-3,1.292610168E-2
1.574020383E1,-2.665519714E-2,-2.984642982E-3,2.970314026E-2
1.575024283E1,-9.606242180E-3,-1.317462325E-2,1.533603668E-2
1.576028175E1,7.559835911E-3,-2.363991737E-2,2.251911163E-2
1.577032061E1,1.033043861E-2,-3.183357418E-2,8.158683777E-3
1.578039394E1,1.076251268E-2,-2.805465460E-2,2.731323242E-2
1.579046531E1,3.645122051E-3,-1.236775517E-2,5.790710449E-3
1.580053478E1,3.485918045E-3,-2.339619398E-2,5.841255188E-3
1.581060245E1,-2.517896891E-2,8.756101131E-3,-2.524948120E-2
1.582066850E1,-3.171938658E-2,1.206865907E-2,-3.482437134E-2
1.583073310E1,-2.654016018E-3,5.808502436E-3,-1.564884186E-2
1.584079653E1,2.120196819E-3,1.179283857E-2,2.508640289E-2
1.585085880E1,-7.269144058E-3,-5.565017462E-3,1.551437378E-2
1.586095598E1,-2.318036556E-2,-1.994428039E-2,2.503967285E-2
1.587105068E1,2.326667309E-2,-3.406345844E-2,4.891586304E-2
1.588114324E1,7.240349054E-2,-4.836304486E-2,1.134815216E-1
1.589123382E1,6.904989481E-2,-4.205147922E-2,5.835151672E-2
1.590132256E1,3.556424379E-2,-4.634143412E-2,5.346965790E-2
1.591140956E1,4.985392094E-3,3.901898861E-3,-7.353019714E-2
1.592149501E1,-7.412314415E-2,1.260969043E-2,-4.805879593E-1
1.593157904E1,-8.996641636E-2,-8.128339052E-2,9.187221527E-2
1.594166267E1,3.062844276E-3,-1.068034470E-1,5.064992905E-1
1.595174641E1,2.305626869E-3,-3.766608238E-2,-2.022743225E-1
1.596183007E1,-3.219854832E-2,2.101120353E-2,-1.859264374E-1
1.597191381E1,-1.058076620E-1,-1.711341739E-2,-7.351303101E-2
1.598199754E1,-7.060348988E-2,-6.203486025E-2,-5.440425873E-2
1.599208107E1,-3.320091963E-2,-1.177489907E-1,3.418350220E-2
1.600216484E1,5.451667309E-2,-9.588009119E-2,1.588687897E-1
1.601224860E1,1.130883098E-1,-4.106691480E-2,1.495227814E-1
1.602234984E1,8.740645647E-2,-5.234211683E-3,9.217071533E-2
1.603245117E1,5.600816011E-2,1.300027966E-2,1.320552826E-2
1.604255274E1,4.998403788E-2,3.767800331E-2,-2.751731873E-2
1.605265457E1,2.592837811E-2,2.171799541E-2,5.910873413E-3
1.606275663E1,1.969575882E-3,-6.188750267E-4,-8.575439453E-3
1.607285900E1,-1.310586929E-3,-2.746143937E-2,-3.019809723E-2
1.608294417E1,-7.696509361E-3,-4.223585129E-2,-1.826381683E-2
1.609302927E1,-2.430158854E-2,-3.516227007E-2,1.045989990E-2
1.610314077E1,-2.434951067E-2,-8.704572916E-3,-3.024196625E-2
1.611325240E1,-6.818878651E-2,2.993077040E-3,2.487754822E-2
1.612336406E1,-4.523438215E-2,9.647250175E-3,3.452968597E-2
1.613347583E1,-7.708156109E-2,-3.361105919E-4,1.543235779E-2
1.614358750E1,-1.790904999E-2,1.538187265E-3,3.464317322E-2
1.615369923E1,-2.809870243E-2,-5.974203348E-3,2.032470703E-2
1.616378343E1,-1.633018255E-2,8.159995079E-3,-8.386611938E-3
1.617386773E1,-4.304838181E-2,-1.694947481E-3,-5.960464478E-3
1.618395190E1,-3.647518158E-2,7.457256317E-3,-3.517150879E-3
1.619403613E1,-6.352448463E-2,2.150180936E-2,-3.463745117E-3
1.620412030E1,-3.566461802E-2,6.979674101E-3,1.814270020E-2
1.621420450E1,1.853871346E-2,1.411363482E-2,6.225585938E-3
1.622428863E1,3.698289394E-3,9.275078773E-3,-1.397895813E-1
1.623437259E1,1.807445288E-2,-1.718360186E-2,9.723854065E-2
1.624445673E1,-5.548536777E-3,-4.781374335E-2,3.734970093E-2
1.625454089E1,-1.993960142E-2,-5.680087209E-2,-9.928226471E-2
1.626464209E1,-2.843898535E-2,-7.616466284E-2,-7.300472260E-2
1.627474333E1,-1.637578011E-2,-4.554742575E-2,-2.975463867E-2
1.628484476E1,2.937018871E-2,-1.890274882E-2,1.762676239E-1
1.629494639E1,8.255356550E-2,-3.580421209E-3,4.467391968E-2
1.630504792E1,9.303766489E-2,-8.186519146E-3,-6.776809692E-2
1.631514966E1,8.016806841E-2,-4.902699590E-2,-3.065109253E-3
1.632523422E1,6.310355663E-2,-3.355103731E-2,8.789920807E-2
1.633531896E1,5.154621601E-2,-4.334497452E-2,9.020328522E-2
1.634543036E1,5.902135372E-2,-6.338791549E-2,6.140995026E-2
1.635554186E1,1.595532894E-2,-5.561707914E-2,2.068805695E-2
1.636565326E1,-4.814720154E-2,-5.532728136E-2,1.825332642E-2
1.637576436E1,-8.543527126E-2,-4.547595978E-2,2.297115326E-2
1.638587539E1,-9.095817804E-2,-2.812004089E-2,1.087951660E-2
1.639598636E1,-6.287992001E-2,-5.143694580E-2,-5.388832092E-2
1.640607096E1,-3.753107786E-2,-2.207404375E-2,-2.526187897E-2
1.641615559E1,-2.681136131E-2,-2.253144979E-3,9.841918945E-4
1.642624029E1,-3.055226803E-2,-1.275986433E-3,-1.586627960E-2
1.643632502E1,-3.431540728E-2,-1.235955954E-2,7.987976074E-3
1.644640999E1,-3.624016047E-2,-2.609598637E-2,1.751804352E-2
1.645649499E1,-2.634048462E-2,-2.137827873E-2,-8.836746216E-3
1.646658009E1,-4.468750954E-2,-2.897557616E-2,-3.999710083E-2
1.647666532E1,-5.091249943E-2,-3.163582087E-2,-1.610469818E-2
1.648675082E1,-3.123551607E-2,6.657540798E-3,7.805824280E-3
1.649683639E1,1.006722450E-4,3.747829795E-2,-4.487037659E-2
1.650694012E1,-4.222929478E-3,2.233278751E-2,-2.093315125E-2
1.651704389E1,5.461752415E-3,2.861404419E-2,3.175926208E-2
1.652714779E1,1.247185469E-2,2.560907602E-2,-6.520271301E-3
1.653725185E1,1.069867611E-2,-6.151646376E-3,-6.538391113E-3
1.654735595E1,2.158367634E-2,-2.346125245E-2,-2.814960480E-2
1.655746002E1,2.533155680E-2,-3.094407916E-2,2.903938293E-3
1.656754698E1,2.585321665E-2,-3.604540229E-2,1.058311462E-1
1.657763398E1,2.879112959E-2,-3.427588940E-2,5.793380737E-2
1.658774732E1,1.141023636E-2,7.846623659E-3,3.870296478E-2
1.659786065E1,-6.342232227E-3,6.166133285E-2,-1.073884964E-1
1.660797412E1,-6.122022867E-2,4.279688001E-2,-3.922462463E-1
1.661808758E1,-8.405792713E-2,-5.213230848E-2,1.659412384E-1
1.662820098E1,5.513417721E-2,-6.633289158E-2,4.106302261E-1
1.663831438E1,3.205752373E-2,-2.461189032E-2,-3.532037735E-1
1.664840125E1,-9.947407246E-2,-6.600238383E-2,-1.668043137E-1
1.665848828E1,-9.848827124E-2,-7.982617617E-2,-1.597404480E-2
1.666857525E1,-6.640011072E-2,-9.565265477E-2,-1.359462738E-2
1.667866231E1,-1.194572449E-2,-9.646622837E-2,6.540393829E-2
1.668874945E1,6.626266241E-2,-5.848102272E-2,1.685571671E-1
1.669883681E1,9.386247396E-2,9.210109711E-4,1.304769516E-1
1.670892441E1,6.877326965E-2,1.527327299E-2,1.802062988E-2
1.671901214E1,3.828877211E-2,1.211100817E-2,-3.706264496E-2
1.672910054E1,2.040326595E-2,-6.089955568E-3,-1.076030731E-2
1.673918895E1,1.535171270E-2,-2.623870969E-2,2.744770050E-2
1.674929438E1,2.948844433E-2,-5.264857411E-2,-1.098918915E-2
1.675939978E1,-1.078891754E-2,-5.535495281E-2,-3.822326660E-3
1.676950524E1,-1.101469994E-2,-9.149436653E-2,-4.689788818E-2
1.677961054E1,-4.934871197E-2,-2.689734101E-2,-8.587837219E-3
1.678971564E1,-5.452340841E-2,2.055168152E-3,1.058292389E-2
1.679982064E1,-3.838211298E-2,3.080418706E-2,2.259159088E-2
1.680990754E1,-1.266503334E-2,4.034057260E-2,1.544666290E-2
1.681999451E1,-2.742218971E-2,3.299283981E-2,1.547527313E-2
1.683010778E1,-2.984708548E-2,4.100650549E-3,1.069355011E-2
1.684022114E1,-3.173953295E-2,-5.707353354E-3,8.276939392E-3
1.685033474E1,-3.344118595E-2,-1.776641607E-2,2.499580383E-2
1.686044848E1,-1.113069057E-2,-6.140083075E-3,5.807876587E-3
1.687056234E1,-2.245295048E-2,-1.840132475E-2,-1.404762268E-3
1.688067614E1,-1.241642237E-2,-9.118855000E-3,3.209495544E-2
1.689076357E1,-7.119953632E-3,-4.487305880E-3,1.052093506E-2
1.690085107E1,7.805585861E-3,-7.170408964E-3,-3.020572662E-2
1.691093847E1,2.045309544E-2,-1.225155592E-2,-1.068515778E-1
1.692102581E1,-2.610385418E-3,-3.398340940E-2,-7.577419281E-2
1.693111311E1,-1.100504398E-2,-2.439266443E-2,1.132965088E-1
1.694120027E1,5.495429039E-3,-3.356999159E-2,-6.401443481E-2
1.695128734E1,-7.488447428E-2,-4.086557031E-2,-1.575880051E-1
1.696137414E1,-4.920965433E-2,-3.676018119E-2,8.189201355E-2
1.697146104E1,4.898190498E-3,6.373137236E-3,2.281370163E-1
1.698154800E1,6.048768759E-2,4.850417376E-3,4.626274109E-2
1.699165620E1,6.502336264E-2,-3.399521112E-2,-7.820320129E-2
1.700176440E1,6.731975079E-2,-6.586064398E-2,5.621910095E-3
1.701187250E1,7.304024696E-2,-6.255300343E-2,9.891128540E-2
1.702198037E1,6.033688784E-2,-4.651358724E-2,8.679008484E-2
1.703208767E1,1.641041040E-2,-2.894786000E-2,1.724147797E-2
1.704219500E1,-1.361429691E-3,-5.011349916E-3,-1.396465302E-2
1.705228517E1,-4.532307386E-2,-1.719748974E-2,-9.261131287E-3
1.706237540E1,-7.934075594E-2,-2.234366536E-2,1.936817169E-2
1.707329240E1,-7.022631168E-2,-4.877829552E-2,-9.472846985E-3
1.708384533E1,-7.342451811E-2,-2.452257276E-2,-3.351783752E-2
1.709388533E1,-3.374522924E-2,-7.547318935E-3,-7.267951965E-3
1.710392233E1,-3.991723061E-3,1.162186265E-2,-2.169418335E-2
1.711396033E1,-1.043128967E-2,1.155698299E-2,-1.215744019E-2
1.712399900E1,-1.720452309E-2,2.234935760E-3,2.175331116E-3
1.713403775E1,-3.851151466E-2,-2.151638269E-3,4.543304443E-3
1.714407695E1,-3.561753035E-2,-1.413151622E-2,2.845573425E-2
1.715411562E1,-2.078396082E-2,-4.789012671E-2,-1.705360413E-2
1.716415433E1,-4.185241461E-2,-1.245722175E-2,-5.058479309E-2
1.717419320E1,-5.307376385E-3,1.663386822E-3,2.360534668E-2
1.718423198E1,-7.187843323E-3,4.072725773E-3,2.357482910E-2
1.719427048E1,1.364350319E-3,1.588028669E-2,-1.719951630E-2
1.720430903E1,7.416307926E-3,-8.383661509E-3,-4.599380493E-2
1.721434961E1,3.673458099E-2,-2.554431558E-2,1.144504547E-2
1.722439015E1,3.958684206E-2,-2.593776584E-2,2.340126038E-2
1.723446722E1,3.838557005E-2,-3.328359127E-2,3.291416168E-2
1.724454195E1,-5.249142647E-3,-4.793405533E-3,4.084587097E-3
1.725461445E1,-2.414613962E-2,-2.438306808E-3,-4.395008087E-2
1.726468480E1,-4.292029142E-2,2.556383610E-3,4.926013947E-2
1.727475352E1,-1.421147585E-2,1.941725612E-2,8.024692535E-2
1.728482084E1,-2.048176527E-2,2.181768417E-3,2.500915527E-2
1.729488694E1,-1.207351685E-2,8.222877979E-3,-3.980255127E-2
1.730495194E1,-3.615343571E-2,-5.311608315E-3,-4.277410507E-1
1.731505203E1,-5.688077211E-2,-8.773297071E-2,2.212800980E-1
1.732514964E1,5.994540453E-2,-7.129298151E-2,3.317937851E-1
1.733524505E1,3.217685223E-2,-4.466885328E-2,-1.973876953E-1
1.734533845E1,-2.065247297E-2,-1.946109533E-2,-1.571178436E-1
1.735542984E1,-1.014598012E-1,-3.830927610E-2,-9.272384644E-2
1.736551943E1,-1.161535978E-1,-8.457365632E-2,-1.384487152E-1
1.737560736E1,-1.137175560E-1,-7.677313685E-2,-7.403087616E-2
1.738569356E1,-1.877349615E-2,-3.015550971E-2,1.797647476E-1
1.739577823E1,7.608884573E-2,5.943089724E-3,2.326145172E-1
1.740586313E1,1.543554664E-1,3.222090006E-2,8.421516418E-2
1.741594820E1,1.457490921E-1,1.449844241E-2,3.948211670E-4
1.742603353E1,1.381051540E-1,-1.297670603E-2,1.468753815E-2
1.743611906E1,5.510240793E-2,-1.608744264E-2,7.351875305E-3
1.744620473E1,5.492448807E-3,-5.005633831E-2,-7.165908813E-3
1.745629076E1,-2.645146847E-2,-6.936706603E-2,4.724502563E-3
1.746637706E1,-5.697801709E-2,-1.050449610E-1,-2.883338928E-2
1.747648069E1,-5.655464530E-2,-4.941770434E-2,-9.719848633E-3
1.748658449E1,-6.096825004E-2,-2.019217610E-2,-1.693820953E-2
1.749668863E1,-4.405063391E-2,4.085332155E-3,6.985664368E-3
1.750679289E1,-4.864829779E-2,2.092012763E-2,2.373313904E-2
1.751689649E1,-4.342728853E-2,2.351683378E-2,1.891517639E-2
1.752700033E1,-3.580421209E-2,2.634465694E-2,6.907463074E-3
1.753708726E1,7.615149021E-3,1.969173551E-2,1.884555817E-2
1.754717412E1,2.949374914E-2,5.983561277E-3,1.880741119E-2
1.755728759E1,1.328057051E-2,-1.712611318E-2,-5.188941956E-3
1.756740129E1,2.118736506E-2,-1.163125038E-2,6.721496582E-3
1.757751489E1,4.347938299E-2,-3.973835707E-2,1.863479614E-2
1.758762836E1,5.770564079E-3,-2.965804935E-2,1.379966736E-2
1.759774159E1,-2.718073130E-2,-3.165256977E-2,1.854515076E-2
1.760785466E1,-2.322614193E-3,-7.436543703E-3,-1.024150848E-2
1.761794102E1,1.761734486E-2,-1.192632318E-2,-1.156377792E-1
1.762802726E1,2.528947592E-2,5.240976810E-3,1.428976059E-1
1.763811306E1,2.146673203E-2,-2.052265406E-2,-5.610466003E-3
1.764819856E1,-2.803409100E-2,-3.257784247E-2,-2.523794174E-1
1.765828399E1,-4.627302289E-2,-6.918117404E-2,-1.537990570E-2
1.766836939E1,-1.763975620E-2,-3.992819786E-2,1.738777161E-1
1.767845459E1,1.423329115E-2,1.204949617E-2,7.575225830E-2
1.768853999E1,5.896389484E-2,1.986005902E-2,-1.041698456E-2
1.769862539E1,4.096060991E-2,-7.127553225E-3,-3.906154633E-2
1.770871065E1,5.717658997E-2,-1.425817609E-2,3.757953644E-2
1.771881279E1,6.208336353E-2,-1.036509871E-2,1.069602966E-1
1.772891469E1,5.049246550E-2,-3.230020404E-2,7.336330414E-2
1.773901642E1,2.453804016E-2,-7.143649459E-2,2.541446686E-2
1.774911799E1,1.771414280E-2,-6.312072277E-2,8.603096008E-3
1.775921939E1,-3.169089556E-2,-6.689542532E-2,3.486347198E-2
1.776932059E1,-1.833546162E-2,-6.334486604E-2,2.757453918E-2
1.777940439E1,1.462715864E-2,-2.113237977E-2,8.281707764E-3
1.778948822E1,-2.465379238E-2,-2.659270167E-2,5.763053894E-3
1.779959855E1,-1.056466997E-1,-3.238886595E-3,1.047897339E-2
1.780970902E1,-9.542757273E-2,-2.539643645E-2,-5.424785614E-2
1.781982015E1,-3.104889393E-2,-9.160399437E-3,-6.159400940E-2
1.782993118E1,-1.278436184E-2,-6.922930479E-3,-4.258060455E-2
1.784004215E1,2.149355412E-2,-3.126634657E-2,2.816200256E-3
1.785015332E1,7.793188095E-3,-3.441615403E-2,5.780315399E-2
1.786023812E1,2.070808411E-2,-4.045473039E-2,1.462841034E-2
1.787032282E1,2.171993256E-4,-1.567599177E-2,-2.615070343E-2
1.788040748E1,-1.075685024E-3,1.387456059E-2,-1.904678345E-2
1.789049232E1,-2.631145716E-2,2.184274793E-2,2.397060394E-2
1.790057755E1,1.189649105E-3,2.244284749E-2,2.150058746E-2
1.791066318E1,1.426905394E-2,-5.860745907E-3,4.673004150E-3
1.792074918E1,7.479906082E-3,-1.758390665E-2,2.140522003E-2
1.793083535E1,-1.886647940E-2,-2.213804424E-2,1.661109924E-2
1.794092181E1,-1.429075003E-2,-1.465594769E-2,-4.933357239E-3
1.795100851E1,-2.639764547E-2,-2.436995506E-3,1.900863647E-2
1.796111261E1,1.894116402E-3,4.948854446E-3,2.620792389E-2
1.797121681E1,2.067071199E-2,2.741783857E-3,1.425170898E-2
1.798132108E1,2.033889294E-2,-1.652440429E-2,-9.346008301E-5
1.799142521E1,1.737171412E-2,-9.402155876E-3,1.430320740E-2
1.800152928E1,-7.246315479E-3,-2.130366862E-2,2.630710602E-2
1.801163338E1,-1.027500629E-2,-1.387181878E-2,7.180213928E-3
1.802172071E1,8.615016937E-3,-2.816320956E-2,-6.702804565E-2
1.803180828E1,-1.284956932E-3,-2.363257110E-2,-6.700515747E-2
1.804192231E1,-2.828645706E-2,-3.346778452E-2,-2.626132965E-2
1.805203651E1,4.218816757E-3,-2.591390908E-2,4.321193695E-2
1.806215078E1,-1.641452312E-3,3.443807364E-3,5.761623383E-2
1.807226511E1,1.445233822E-2,-1.277247071E-2,1.214790344E-2
1.808237964E1,9.648561478E-3,-1.254904270E-2,-4.617691040E-3
1.809249418E1,3.578168154E-2,-4.612177610E-2,3.849029541E-2
1.810258198E1,3.800737858E-2,-1.746821404E-2,6.244277954E-2
1.811266964E1,1.663064957E-2,-1.519492269E-2,9.764671326E-3
1.812275641E1,-2.169167995E-2,1.039806008E-2,-3.445568085E-1
1.813284304E1,-3.010177612E-2,-3.358869255E-2,1.082239151E-1
1.814292951E1,5.715841055E-2,-9.781636298E-2,5.421428680E-1
1.815301591E1,7.514101267E-2,-1.542848349E-2,-1.711006165E-1
1.816310201E1,-2.330422401E-3,1.384508610E-2,-8.520126343E-3
1.817318814E1,-5.403968692E-2,3.447651863E-2,-1.402921677E-1
1.818327444E1,-1.303456724E-1,-4.881674051E-2,-1.955814362E-1
1.819336070E1,-1.207217872E-1,-8.872602880E-2,-1.670637131E-1
1.820346437E1,-5.331268907E-2,-1.083683372E-1,1.734542847E-2
1.821356794E1,2.687048912E-2,-7.142904401E-2,1.924152374E-1
1.822367137E1,1.047798395E-1,-2.748234570E-2,2.142581940E-1
1.823377484E1,1.540969610E-1,4.231712222E-2,1.785173416E-1
1.824387830E1,1.787989736E-1,5.394127965E-2,7.087612152E-2
1.825398170E1,2.504779696E-1,-8.693516254E-3,-3.326416016E-3
1.826406780E1,7.082295418E-2,-4.252859950E-2,9.484958649E-2
1.827415360E1,-1.007895470E-1,-8.356057107E-2,3.968238831E-3
1.828426614E1,-1.281262934E-1,-1.084849834E-1,-7.509231567E-2
1.829437854E1,-1.100573540E-1,-7.844328880E-2,-6.076908112E-2
1.830449087E1,-9.378135204E-2,-5.505369604E-2,-8.726119995E-4
1.831460303E1,-5.162191391E-2,-1.410362124E-2,2.550697327E-2
1.832471497E1,-2.443253994E-3,3.409308195E-2,1.837730408E-2
1.833482670E1,2.249789238E-2,1.731464267E-2,-7.882118225E-3
1.834491193E1,4.001230001E-2,4.374328256E-2,1.135826111E-2
1.835499703E1,2.903354168E-2,5.854606628E-3,2.818489075E-2
1.836508183E1,1.543343067E-3,1.588949561E-2,4.295349121E-3
1.837516657E1,-6.640017033E-3,-3.243565559E-3,1.392650604E-2
1.838525107E1,-1.228743792E-2,-7.890850306E-3,2.115249634E-2
1.839533540E1,-1.786923409E-2,1.360636950E-2,1.640987396E-2
1.840541980E1,-1.134490967E-2,-3.158926964E-3,6.869316101E-3
1.841550400E1,-2.174937725E-2,-8.891522884E-4,-9.840011597E-3
1.842558823E1,-1.762455702E-2,1.597535610E-2,1.653099060E-2
1.843567246E1,2.721196413E-2,6.501525640E-3,-7.378578186E-3
1.844577426E1,3.636753559E-2,-2.445001900E-2,-7.918548584E-2
1.845587600E1,3.394782543E-2,-2.453429997E-2,1.147489548E-1
1.846597776E1,1.012527943E-2,-3.646281362E-2,-1.079196930E-1
1.847607940E1,-1.698082685E-2,-3.232063353E-2,-2.419567108E-2
1.848618096E1,-5.955857038E-2,-8.881270885E-3,7.647800446E-2
1.849628243E1,-2.513301373E-2,-8.367180824E-3,1.429939270E-2
1.850636630E1,-2.033472061E-3,6.291717291E-3,-2.157402039E-2
1.851645000E1,1.307600737E-2,-4.523724318E-3,-3.102588654E-2
1.852656033E1,3.987032175E-2,-1.096025109E-2,5.040168762E-3
1.853667056E1,5.296713114E-2,-1.663604379E-2,3.625965118E-2
1.854678096E1,5.959588289E-2,-7.325351238E-3,3.629875183E-2
1.855689153E1,2.594363689E-2,-3.606845438E-2,4.588317871E-2
1.856700229E1,1.218628883E-2,-5.255135894E-2,3.626441956E-2
1.857711333E1,-6.223499775E-3,-5.471347272E-2,2.424526215E-2
1.858719786E1,-4.855990410E-4,-5.212804675E-2,3.615760803E-2
1.859728276E1,-9.120941162E-3,-4.209026694E-2,4.327487946E-2
1.860736793E1,6.461977959E-3,-4.598587751E-2,4.318332672E-2
1.861745356E1,-6.708562374E-3,-3.270815313E-2,-3.113937378E-2
1.862753952E1,-1.114723682E-1,-3.420399129E-2,-7.189750671E-2
1.863762579E1,-1.289854646E-1,-6.012873352E-2,-6.707668304E-2
1.864771236E1,-7.146728039E-2,-1.183247566E-2,-4.540824890E-2
1.865779912E1,5.910015106E-2,3.421902657E-3,-4.762649536E-2
1.866788626E1,4.475396872E-2,-2.243123949E-2,7.699012756E-3
1.867797356E1,-1.774263382E-2,-6.068120897E-2,4.629516602E-2
1.868808136E1,-1.426219940E-2,-6.351494789E-2,5.849266052E-2
1.869818942E1,2.193820477E-2,-6.249040365E-3,6.101417542E-2
1.870829775E1,3.453755379E-2,4.355242848E-2,3.958320618E-2
1.871840642E1,2.648109198E-2,5.258765817E-2,2.528285980E-2
1.872851539E1,9.735465050E-3,2.816855907E-2,3.746032715E-3
1.873862455E1,2.904331684E-2,3.284230828E-2,-1.062488556E-2
1.874871638E1,7.348120213E-3,2.064725757E-2,-1.539897919E-2
1.875880832E1,2.219676971E-3,1.074701548E-2,-1.297664642E-2
1.876973732E1,1.816475391E-2,-2.089641988E-2,1.342105865E-2
1.878031833E1,2.922230959E-2,-6.986856461E-3,2.545928955E-2
1.879036433E1,3.534704447E-2,-9.711503983E-3,3.031826019E-2
1.880040633E1,5.338311195E-2,9.048819542E-3,1.602935791E-2
1.881044683E1,2.370315790E-2,-3.203481436E-3,2.327442169E-2
1.882048717E1,3.741091490E-2,1.462370157E-3,8.952140808E-3
1.883052767E1,8.186042309E-3,-9.208619595E-4,4.193305969E-3
1.884056827E1,1.239436865E-2,-2.242450416E-2,3.295612335E-2
1.885060910E1,-1.452809572E-2,-3.196851909E-2,6.654739380E-3
1.886065081E1,-1.264321804E-2,-4.640209675E-2,-1.725482941E-2
1.887069306E1,-4.665881395E-2,-3.682453930E-2,-5.254745483E-3
1.888073551E1,-1.841473579E-2,-6.547208130E-2,-2.833366394E-3
1.889077801E1,4.325217009E-2,-5.570523441E-2,6.772994995E-3
1.890082028E1,4.234910011E-2,-5.062681437E-2,1.639556885E-2
1.891086253E1,1.692277193E-2,-4.329514503E-2,2.366256714E-2
1.892090430E1,5.936980247E-3,-4.887700081E-3,6.985664368E-3
1.893098344E1,1.239043474E-2,-2.134500444E-2,5.011749268E-2
1.894106004E1,-2.896946669E-2,-3.774812818E-2,3.817653656E-2
1.895113429E1,-2.922415733E-2,-5.444760621E-2,3.579616547E-2
1.896120658E1,-1.756536961E-2,-4.505443573E-2,1.666641235E-2
1.897127725E1,-3.733634949E-3,-3.562738001E-2,7.125854492E-3
1.898134646E1,-1.163357496E-2,-3.546895087E-2,9.558677673E-3
1.899141436E1,-7.539808750E-3,-2.307473123E-2,1.239776611E-5
1.900148107E1,1.317977905E-2,1.066777110E-2,-2.867317200E-2
1.901158371E1,-1.127165556E-2,1.806053519E-2,-5.019569397E-2
1.902168375E1,1.471906900E-2,-3.006666899E-3,-3.821659088E-2
1.903178125E1,2.608221769E-2,-2.860145271E-2,2.883815765E-2
1.904187649E1,5.640864372E-2,-4.457578063E-2,7.674980164E-2
1.905196968E1,7.256108522E-2,-3.688421845E-2,1.931285858E-2
1.906206098E1,4.109352827E-2,-2.506588399E-2,-1.418113708E-2
1.907215055E1,9.789228439E-3,-2.058058977E-3,1.937294006E-2
1.908223852E1,5.335390568E-3,6.727188826E-3,3.852653503E-2
1.909232488E1,-5.554616451E-3,1.352143288E-2,1.931858063E-2
1.910241138E1,-4.043018818E-2,2.490803599E-2,-3.326768875E-1
1.911249815E1,-5.595982075E-2,-1.066154242E-2,-9.335517883E-3
1.912258495E1,1.242578030E-2,-2.235922217E-2,5.418090820E-1
1.913267175E1,7.764917612E-2,4.533976316E-3,-5.418586731E-2
1.914275852E1,1.205968857E-2,3.305196762E-2,-3.765773773E-2
1.915284538E1,-3.727871180E-2,2.685645223E-2,-4.971218109E-2
1.916293235E1,-4.613500834E-2,-4.474425316E-2,-2.199611664E-1
1.917303641E1,-1.010053754E-1,-1.236120015E-1,-1.196289062E-1
1.918314051E1,-7.675337791E-2,-1.578598320E-1,-3.335571289E-2
1.919324475E1,-7.168334723E-2,-1.019065976E-1,8.181667328E-2
1.920334908E1,-2.981120348E-2,-5.511820316E-3,1.466665268E-1
1.921345345E1,7.389926910E-2,2.096077800E-2,1.587343216E-1
1.922355815E1,1.235627532E-1,3.985258937E-2,9.892463684E-2
1.923364551E1,1.446537971E-1,1.100116968E-2,6.304168701E-2
1.924373308E1,7.928556204E-2,-2.728928626E-2,3.196239471E-2
1.925384798E1,7.472872734E-3,-6.555244327E-2,1.520061493E-2
1.926396304E1,-4.913461208E-2,-5.824120343E-2,-3.034496307E-2
1.927407814E1,-2.699792385E-3,-4.404073954E-2,-4.476451874E-2
1.928419328E1,3.353160620E-2,-2.265082300E-2,-2.562618256E-2
1.929430851E1,7.347583771E-2,1.121014357E-3,5.549430847E-3
1.930442388E1,5.106467009E-2,1.520234346E-2,3.433990479E-2
1.931451214E1,4.535913467E-4,1.498040557E-2,3.436756134E-2
1.932460047E1,-3.801548481E-2,3.854119778E-2,5.657196045E-3
1.933468884E1,-5.976349115E-2,3.331279755E-2,5.681037903E-3
1.934477721E1,-6.270480156E-2,1.646423340E-2,8.111953735E-3
1.935486554E1,-3.973960876E-2,2.100139856E-3,1.056575775E-2
1.936495387E1,-4.879653454E-3,-4.890263081E-4,1.542472839E-2
1.937504207E1,-1.774364710E-2,4.227757454E-3,1.548290253E-2
1.938513024E1,7.842004299E-3,-7.804095745E-3,6.341457367E-2
1.939521840E1,1.233476400E-2,2.313259244E-2,3.710174561E-2
1.940530644E1,1.962316036E-2,1.325714588E-2,2.513217926E-2
1.941541114E1,3.187412024E-2,8.120447397E-3,5.970001221E-3
1.942551584E1,3.489786386E-2,-1.869979501E-2,-1.065826416E-1
1.943562054E1,2.404063940E-2,-5.508802831E-2,2.264690399E-2
1.944572510E1,2.057468891E-2,-4.613205791E-2,-5.403232574E-2
1.945582927E1,-1.607513428E-2,-5.912409723E-2,-1.819610596E-2
1.946593284E1,-1.368093491E-2,-5.998982489E-2,6.801891327E-2
1.947601900E1,-2.669090033E-2,-1.921543479E-2,3.437995911E-3
1.948610483E1,1.655030251E-2,-1.984775066E-3,-2.770805359E-2
1.949621777E1,3.324991465E-2,-2.117475867E-2,-2.770328522E-2
1.950633057E1,4.659658670E-2,-2.678073943E-2,5.900382996E-3
1.951644317E1,4.082846642E-2,-5.370178819E-2,8.371353149E-3
1.952655557E1,5.735212564E-2,-2.962423861E-2,1.556491852E-2
1.953666767E1,3.806114197E-2,-5.316942930E-2,4.668807983E-2
1.954677953E1,3.307431936E-2,-5.524548888E-2,2.274894714E-2
1.955686403E1,6.938993931E-3,-2.612052858E-2,2.990818024E-2
1.956694840E1,-2.185761929E-3,-3.537122905E-2,2.508354187E-2
1.957703243E1,-6.484508514E-3,-3.978367150E-2,5.616760254E-2
1.958711616E1,1.445114613E-3,-6.083036959E-2,3.695487976E-2
1.959719963E1,-2.838909626E-2,-4.069960117E-2,2.008819580E-2
1.960728290E1,-1.254343987E-2,-3.274722397E-2,-1.593589783E-2
1.961736600E1,-1.143908501E-2,5.771040916E-3,-2.558612823E-2
1.962744900E1,-1.511400938E-2,3.677672148E-2,-6.498336792E-3
1.963753200E1,-1.897662878E-2,3.184056282E-2,-6.550788879E-3
1.964761493E1,-1.360321045E-2,2.705743909E-2,-3.052902222E-2
1.965771476E1,-2.320230007E-2,-1.372361183E-2,-1.376724243E-2
1.966781456E1,-2.094131708E-2,-2.588646114E-2,2.455329895E-2
1.967791446E1,-2.846741676E-2,-1.410558820E-2,4.852104187E-2
1.968801436E1,-7.480680943E-3,9.691387415E-3,4.377174377E-2
1.969811430E1,-3.239929676E-3,3.376802802E-2,1.028347015E-2
1.970821420E1,2.294248343E-2,3.141814470E-2,7.897377014E-3
1.971829713E1,1.621246338E-2,2.902558446E-2,1.026344299E-2
1.972838010E1,3.858250380E-2,-1.671954989E-2,1.261425018E-2
1.973848930E1,1.791125536E-2,-1.946786046E-2,1.017475128E-2
1.974859866E1,3.068494797E-2,-3.434680402E-2,5.636215210E-4
1.975870873E1,-4.513382912E-3,-2.983964980E-2,1.728725433E-2
1.976881903E1,6.068348885E-4,-3.242115676E-2,1.487731934E-2
1.977892939E1,7.964789867E-3,1.315513253E-2,2.683544159E-2
1.978903983E1,-6.233632565E-3,-5.654871464E-3,2.202701569E-2
1.979912289E1,1.073658466E-2,4.260778427E-3,1.482295990E-2
1.980920589E1,1.087254286E-2,-2.422513068E-2,1.480770111E-2
1.981928876E1,3.895938396E-3,-2.881549299E-2,2.436637878E-2
1.982937156E1,1.761853695E-3,-4.775765538E-2,2.195167542E-2
1.983945456E1,2.123534679E-3,-3.791807592E-2,5.162239075E-3
1.984953776E1,2.437829971E-3,-4.008981586E-2,1.950263977E-2
1.985962096E1,1.003706455E-2,-3.753365576E-2,1.468372345E-2
1.986970396E1,1.781654358E-2,-3.011499345E-2,-2.117156982E-3
1.987978709E1,1.599174738E-2,-2.993299067E-2,2.178573608E-2
1.988987046E1,4.873275757E-3,-1.548564434E-2,9.759902954E-3
1.989997126E1,1.783388853E-2,-8.144080639E-3,4.560947418E-2
1.991007222E1,2.353626490E-2,-2.255438268E-2,4.316043854E-2
1.992017329E1,1.246243715E-2,-2.988515794E-2,2.635192871E-2
1.993027436E1,3.032976389E-2,1.102685928E-3,2.628803253E-2
1.994037536E1,7.317185402E-3,-2.539815009E-2,-7.282257080E-3
1.995047632E1,2.020859718E-2,3.311365843E-3,7.028579712E-3
1.996056032E1,-5.081653595E-3,5.699723959E-3,2.133083344E-2
1.997064425E1,1.994585991E-2,-1.122283936E-2,-9.855270386E-3
1.998075492E1,-5.481243134E-4,-3.091306984E-2,-4.102802277E-2
1.999086549E1,2.927720547E-3,-2.877502143E-2,-1.714420319E-2
2.000097592E1,-1.028776169E-3,-1.196572185E-2,2.590179443E-2
2.001108632E1,9.658157825E-3,-1.433679461E-2,5.695819855E-2
2.002119675E1,1.343464851E-2,7.232606411E-3,3.053951263E-2
2.003130708E1,1.477319002E-2,6.092786789E-3,-2.936458588E-2
2.004139119E1,3.494262695E-3,3.917992115E-3,-3.174018860E-2
2.005147538E1,-1.299500465E-2,1.942902803E-3,4.209518433E-3
2.006155905E1,-7.820069790E-3,5.578160286E-3,3.534317017E-2
2.007164275E1,-1.306951046E-3,5.508071184E-2,-1.393728256E-1
2.008172648E1,-3.304469585E-2,2.265259624E-2,-2.229557037E-1
2.009181028E1,7.552325726E-3,-4.538561404E-2,4.886512756E-1
2.010189402E1,1.054755449E-1,-5.184905231E-2,1.659307480E-1
2.011197788E1,4.415047169E-2,-2.418401837E-2,-1.549854279E-1
2.012206198E1,-2.467256784E-2,-2.567112446E-3,2.780914307E-3
2.013214605E1,-5.684423447E-2,-1.638695598E-2,-2.296190262E-1
2.014224702E1,-8.482325077E-2,-9.479595721E-2,-1.413040161E-1
2.015234785E1,-8.226519823E-2,-1.278880984E-1,-1.210308075E-2
