"Time (s)","Linear Acceleration x (m/s^2)","Linear Acceleration y (m/s^2)","Linear Acceleration z (m/s^2)"
1.974988500E-2,3.967092276E0,5.656045914E0,-1.671732521E1
2.981688500E-2,4.261160374E0,5.684249878E0,-1.715901566E1
4.058888500E-2,3.556846619E0,5.156953812E0,-1.820401764E1
5.100788500E-2,3.147021532E0,4.840348244E0,-1.973979568E1
6.130821800E-2,3.532539845E0,4.779386520E0,-1.969347382E1
7.154921800E-2,4.678430080E0,4.804094791E0,-1.753541756E1
8.175501800E-2,5.341161728E0,4.946414948E0,-1.856240273E1
9.193718400E-2,5.925694942E0,5.454962254E0,-1.757184219E1
1.021028980E-1,6.066975117E0,5.691928864E0,-1.634488869E1
1.122561480E-1,4.178775311E0,5.164416313E0,-1.401000309E1
1.224879250E-1,4.534000874E0,5.320212364E0,-1.546199226E1
1.327028250E-1,5.384743214E0,5.735088348E0,-1.658585930E1
1.429039150E-1,6.673073769E0,5.650107384E0,-1.743797684E1
1.530935810E-1,7.709538937E0,4.816917896E0,-1.720620537E1
1.632736570E-1,7.398823738E0,4.617896557E0,-1.748002243E1
1.734454420E-1,7.075080872E0,4.812524796E0,-1.812017822E1
1.836099750E-1,6.431071281E0,4.471432686E0,-1.739547729E1
1.937682870E-1,5.563090324E0,4.797299862E0,-1.592335129E1
2.039208750E-1,6.360788345E0,6.090861320E0,-1.534576511E1
2.140688190E-1,7.636583328E0,6.265813828E0,-1.447797585E1
2.242124500E-1,8.180604935E0,5.974600315E0,-1.359403801E1
2.343522500E-1,8.458864212E0,5.581377983E0,-1.298512936E1
2.444885830E-1,7.465580940E0,4.708158016E0,-1.207470226E1
2.546217640E-1,5.783530235E0,3.987448215E0,-1.103216362E1
2.647518940E-1,4.263101578E0,3.242988586E0,-1.025813198E1
2.748791850E-1,4.462773800E0,2.021039009E0,-1.001357651E1
2.850284250E-1,6.318565369E0,7.289108038E-1,-9.048960686E0
2.951745010E-1,8.446993828E0,1.554491520E0,-7.553504467E0
3.053176120E-1,1.070254898E1,3.186284542E0,-6.739767075E0
3.154578620E-1,1.347843742E1,2.761517763E0,-4.626338959E0
3.255954480E-1,1.465129662E1,1.327263236E0,-3.290568829E0
3.357305140E-1,1.464338875E1,-8.395642042E-1,-2.542710781E0
3.458419140E-1,1.439297295E1,-2.312902689E0,-1.107466459E0
3.559531470E-1,1.476506996E1,-3.628099680E0,1.972441196E0
3.649528850E-1,1.419052887E1,-7.911520004E0,1.613872290E0
3.750148850E-1,1.182820511E1,-9.352145195E0,5.102986336E0
3.850908850E-1,1.373911190E1,-7.702654839E0,6.057571411E0
3.951618850E-1,1.848657990E1,-4.642068863E0,7.522913456E0
4.052312180E-1,2.462522125E1,-1.263109326E0,1.035991192E1
4.152992180E-1,2.863161469E1,-7.429563999E-1,1.415745258E1
4.253664180E-1,3.006164932E1,-6.255595684E-1,1.701962852E1
4.354334180E-1,2.869236755E1,3.476297855E-1,1.878310204E1
4.454998460E-1,2.437848282E1,1.298655272E0,2.040713120E1
4.555659710E-1,1.857324219E1,-1.833157539E-1,2.103765488E1
4.656316370E-1,1.289419365E1,-2.962362528E0,2.086021423E1
4.756973370E-1,7.554072380E0,-6.084746838E0,2.008708000E1
4.857629730E-1,5.350557327E0,-7.328813553E0,2.079690552E1
4.958285560E-1,8.876985550E0,-3.746776104E0,2.375098801E1
5.058944020E-1,1.201171112E1,-4.653720856E-1,2.043395042E1
5.159601870E-1,7.609408379E0,-8.354365349E0,2.109803009E1
5.260597200E-1,4.792317390E0,-1.214560604E1,2.182552528E1
5.361571570E-1,4.627428055E0,-1.150728226E1,2.211302757E1
5.462523920E-1,5.675851822E0,-1.058252144E1,2.114514732E1
5.563458360E-1,6.762989998E0,-1.033294296E1,2.046391678E1
5.664377300E-1,6.671004295E0,-1.032310677E1,2.003361130E1
5.765283800E-1,5.687350273E0,-1.067642975E1,1.976480865E1
5.866179030E-1,4.769404888E0,-1.043796539E1,1.850730133E1
5.967063570E-1,3.315804482E0,-1.028609657E1,1.580506897E1
6.068285300E-1,2.362292290E0,-1.054333115E1,1.447962379E1
6.169483210E-1,3.203160286E0,-1.023254776E1,1.393970108E1
6.270659610E-1,3.929559231E0,-9.578203201E0,1.347556114E1
6.371816140E-1,4.211044788E0,-1.018142700E1,1.458164024E1
6.472953910E-1,4.776403427E0,-1.030509949E1,1.685461807E1
6.574074260E-1,4.382076740E0,-9.872677803E0,2.347210121E1
6.675177360E-1,3.798897743E0,-8.725175858E0,2.418260574E1
6.776265020E-1,2.825469494E0,-8.654606819E0,1.911458778E1
6.877349020E-1,1.838865995E0,-9.066974640E0,1.675025749E1
6.978432680E-1,2.437294722E-1,-1.013281059E1,1.542803383E1
7.079517340E-1,-8.404533863E-1,-1.014112282E1,1.550641155E1
7.180604340E-1,-1.785886407E0,-9.713155746E0,1.615466499E1
7.281693340E-1,-2.235166073E0,-8.950375557E0,1.723534012E1
7.382784670E-1,-1.920176506E0,-9.003413200E0,1.722611618E1
7.483884000E-1,-1.072304726E0,-8.938434601E0,1.701514244E1
7.584984000E-1,-4.102239609E-1,-8.424757004E0,1.670446587E1
7.686262660E-1,-5.170106888E-4,-6.846233368E0,1.606612587E1
7.787541660E-1,-2.773272991E-1,-4.966273308E0,1.391119671E1
7.888821660E-1,-1.703391075E-1,-3.704379320E0,1.056790924E1
7.990102320E-1,1.684174538E-1,-4.308473587E0,1.336842346E1
8.091382980E-1,1.518742561E0,-5.980750561E0,1.675632668E1
8.192664980E-1,4.483553410E0,-8.560390472E0,2.686624146E1
8.293778640E-1,3.713261127E0,-1.047393036E1,1.898453522E1
8.394893300E-1,3.276418209E0,-1.150481033E1,1.450125217E1
8.508788850E-1,3.061685085E0,-1.315539742E1,1.558337688E1
8.609498850E-1,2.576335907E0,-1.408893967E1,1.677555656E1
8.710178850E-1,1.926532865E0,-1.383809280E1,1.608666992E1
8.810873850E-1,1.362923145E0,-1.309818935E1,1.541950226E1
8.911580510E-1,7.893781662E-1,-1.232927322E1,1.572330475E1
9.012293010E-1,3.799159527E-1,-1.168262672E1,1.661935425E1
9.113005010E-1,3.414093256E-1,-1.121565819E1,1.673995209E1
9.213718340E-1,6.193850040E-1,-1.069901562E1,1.628597641E1
9.314428340E-1,1.105574131E0,-1.021079445E1,1.624015617E1
9.415309590E-1,1.703448772E0,-9.706638336E0,1.630229759E1
9.516170700E-1,2.246743202E0,-9.181699753E0,1.611855888E1
9.617011700E-1,2.550624132E0,-8.738355637E0,1.615771484E1
9.717836240E-1,2.514912128E0,-8.659831047E0,1.632216454E1
9.818647900E-1,2.261814833E0,-8.969250679E0,1.632020569E1
9.919447900E-1,1.916712284E0,-9.506588936E0,1.628893661E1
1.002024147E0,1.702552438E0,-1.002190208E1,1.621536446E1
1.012143547E0,1.634583235E0,-1.041736603E1,1.607121277E1
1.022259734E0,1.849751830E0,-1.055369186E1,1.600339699E1
1.032373086E0,2.084744215E0,-1.051716232E1,1.593963242E1
1.042483919E0,2.278158188E0,-1.034382343E1,1.609955215E1
1.052592445E0,2.291723490E0,-1.028238106E1,1.623579407E1
1.062698895E0,2.159337282E0,-1.033445740E1,1.591085243E1
1.072803609E0,2.022703171E0,-1.044905376E1,1.593236923E1
1.082906745E0,1.912827253E0,-1.064766979E1,1.593402672E1
1.094233885E0,1.936089516E0,-1.094004440E1,1.544747353E1
1.104303885E0,2.208791971E0,-1.104493904E1,1.657163239E1
1.114369885E0,2.606762886E0,-1.061493111E1,1.716846848E1
1.124437385E0,2.857662678E0,-1.002235699E1,1.636631203E1
1.134503718E0,2.864627123E0,-9.651494980E0,1.611740112E1
1.144569968E0,2.664203167E0,-9.382288933E0,1.613882637E1
1.154635768E0,2.190924644E0,-9.351035118E0,1.586788654E1
1.164701434E0,1.823637366E0,-9.567687988E0,1.596637917E1
1.174766719E0,1.604700327E0,-9.727581024E0,1.610563087E1
1.184832469E0,1.579424739E0,-9.897927284E0,1.617975235E1
1.194898246E0,1.719141483E0,-1.009001732E1,1.634519577E1
1.204964146E0,1.983063340E0,-1.031221771E1,1.617444038E1
1.215030327E0,2.262085438E0,-1.051522255E1,1.607344055E1
1.225096577E0,2.556824207E0,-1.058158875E1,1.609227371E1
1.235162961E0,2.739523411E0,-1.056060600E1,1.591296482E1
1.245229603E0,2.739968300E0,-1.054610062E1,1.587535667E1
1.255339469E0,2.561884880E0,-1.053738022E1,1.620504761E1
1.265446844E0,2.291441679E0,-1.051011848E1,1.637343597E1
1.275551844E0,2.003398895E0,-1.047725964E1,1.643919373E1
1.285654788E0,1.771622419E0,-1.051226616E1,1.649567223E1
1.295755682E0,1.667889595E0,-1.055189514E1,1.644086456E1
1.305854932E0,1.685558558E0,-1.057570362E1,1.627905083E1
1.315952741E0,1.756762981E0,-1.052660561E1,1.613959122E1
1.326049241E0,1.889207244E0,-1.043192196E1,1.599519634E1
1.336179458E0,2.068623781E0,-1.026938820E1,1.616077995E1
1.346307166E0,2.172393322E0,-1.017625809E1,1.617119980E1
1.356433886E0,2.179128647E0,-1.012484550E1,1.620957184E1
1.366558309E0,2.149195671E0,-1.004906750E1,1.619276428E1
1.376680605E0,2.139161110E0,-9.991387367E0,1.622245026E1
1.386801033E0,2.154060841E0,-1.002663612E1,1.631702423E1
1.396919653E0,2.234859943E0,-1.007087898E1,1.620349312E1
1.407036653E0,2.313751936E0,-1.024267292E1,1.618067741E1
1.417153819E0,2.317008018E0,-1.039253426E1,1.650166512E1
1.427271185E0,2.287796021E0,-1.048319054E1,1.658299637E1
1.437388818E0,2.225143433E0,-1.051511002E1,1.619592667E1
1.447506618E0,2.153582573E0,-1.052965450E1,1.570532513E1
1.457624651E0,2.123417377E0,-1.048437119E1,1.581527710E1
1.467742684E0,2.134171486E0,-1.036674213E1,1.648807716E1
1.477860884E0,2.214964867E0,-1.023176479E1,1.622784424E1
1.487979050E0,2.407380342E0,-1.001197815E1,1.574917984E1
1.498118050E0,2.487737656E0,-9.818788528E0,1.581330395E1
1.508257283E0,2.449073076E0,-9.746231079E0,1.599602318E1
1.518396549E0,2.301230431E0,-9.793706894E0,1.598628998E1
1.528535882E0,2.130866766E0,-9.933991432E0,1.601945305E1
1.538675215E0,2.032357216E0,-1.009852982E1,1.593228912E1
1.548814548E0,2.013028860E0,-1.030149841E1,1.591637230E1
1.558932348E0,2.047658682E0,-1.047213936E1,1.595841694E1
1.569050348E0,2.137033701E0,-1.065166092E1,1.590189648E1
1.580558885E0,2.215192556E0,-1.075321674E1,1.591305923E1
1.590628885E0,2.256273270E0,-1.080503082E1,1.597783089E1
1.600699885E0,2.275851011E0,-1.076667213E1,1.579473686E1
1.610770385E0,2.381396055E0,-1.071771622E1,1.567451286E1
1.620841051E0,2.442265272E0,-1.067991447E1,1.555436134E1
1.630911301E0,2.477246523E0,-1.066018105E1,1.555212212E1
1.640982101E0,2.507760525E0,-1.062712288E1,1.554354858E1
1.651052601E0,2.553918839E0,-1.059820080E1,1.554995155E1
1.661122886E0,2.526905537E0,-1.061253166E1,1.555867290E1
1.671193011E0,2.480742693E0,-1.067051697E1,1.548249245E1
1.681262788E0,2.405599117E0,-1.070026112E1,1.545328140E1
1.691332888E0,2.412201881E0,-1.072026539E1,1.534939861E1
1.701402978E0,2.412953138E0,-1.074454689E1,1.535051155E1
1.711472728E0,2.517420292E0,-1.073774242E1,1.533633518E1
1.721542189E0,2.588523388E0,-1.074545479E1,1.529509163E1
1.731611403E0,2.640481710E0,-1.076975250E1,1.529905701E1
1.741722069E0,2.749256134E0,-1.080583668E1,1.529811668E1
1.751830069E0,2.794334888E0,-1.082879734E1,1.519331551E1
1.761935774E0,2.814527512E0,-1.088921547E1,1.515167046E1
1.772039496E0,2.813897133E0,-1.092357826E1,1.510414124E1
1.782141180E0,2.775927305E0,-1.100931835E1,1.516540527E1
1.792240980E0,2.716360569E0,-1.111449718E1,1.515404606E1
1.802339122E0,2.692334890E0,-1.112387562E1,1.438244915E1
1.812435849E0,2.643033743E0,-1.112227058E1,1.566202164E1
1.822566501E0,2.622573614E0,-1.103885078E1,1.518836021E1
1.832694292E0,2.731468916E0,-1.093906021E1,1.467498970E1
1.842819812E0,2.870132923E0,-1.089292526E1,1.495306206E1
1.852943081E0,2.976792336E0,-1.081985283E1,1.490318298E1
1.863064118E0,3.010641336E0,-1.076076794E1,1.479677773E1
1.873183046E0,2.989552498E0,-1.072555447E1,1.477431202E1
1.883300114E0,2.908200741E0,-1.074814701E1,1.465664291E1
1.893415514E0,2.803210497E0,-1.082716846E1,1.457193565E1
1.903530714E0,2.741439104E0,-1.098916340E1,1.441334820E1
1.913645880E0,2.737215281E0,-1.122200394E1,1.439174461E1
1.923760880E0,2.776764870E0,-1.144017220E1,1.433591080E1
1.933875780E0,2.839314222E0,-1.163390160E1,1.430076218E1
1.943990413E0,2.910455942E0,-1.175590324E1,1.434757519E1
1.954104946E0,2.970156193E0,-1.178728104E1,1.429678154E1
1.964219579E0,2.990478992E0,-1.173048592E1,1.413622570E1
1.974334079E0,3.025504112E0,-1.165194511E1,1.402179241E1
1.984466279E0,2.975459337E0,-1.156904793E1,1.402872276E1
1.994598179E0,2.979635477E0,-1.152575111E1,1.388490868E1
2.004730012E0,2.991211653E0,-1.151367950E1,1.404881287E1
2.014861778E0,3.035527945E0,-1.155749893E1,1.400509262E1
2.024993478E0,3.072096586E0,-1.161489105E1,1.393822098E1
2.035125178E0,3.146892786E0,-1.166178703E1,1.389132118E1
2.045236044E0,3.199708939E0,-1.177285957E1,1.386857605E1
2.055346844E0,3.282409430E0,-1.182848740E1,1.382976151E1
2.066653885E0,3.294349194E0,-1.183795357E1,1.364861298E1
2.076722885E0,3.297686338E0,-1.180889511E1,1.349199867E1
2.086790885E0,3.305636168E0,-1.178752708E1,1.345349312E1
2.096858885E0,3.335347414E0,-1.180010605E1,1.339885139E1
2.106928551E0,3.317072630E0,-1.180291748E1,1.319290543E1
2.116996801E0,3.329463720E0,-1.183932590E1,1.337652206E1
2.127065001E0,3.294267416E0,-1.185780048E1,1.332186699E1
2.137132834E0,3.268354177E0,-1.199768543E1,1.340422821E1
2.147200119E0,3.222737551E0,-1.226461697E1,1.274382019E1
2.157267619E0,3.201459885E0,-1.249527359E1,1.284940529E1
2.167335174E0,3.231941938E0,-1.247537613E1,1.369635773E1
2.177402774E0,3.368746996E0,-1.218750858E1,1.315944290E1
2.187470319E0,3.560937405E0,-1.190836525E1,1.292184448E1
2.197537902E0,3.643120050E0,-1.168803024E1,1.286454010E1
2.207605902E0,3.597387075E0,-1.159381294E1,1.281841278E1
2.217673902E0,3.488853455E0,-1.163472652E1,1.279118156E1
2.227778902E0,3.387968063E0,-1.174720478E1,1.276313972E1
2.237881589E0,3.368535995E0,-1.202164078E1,1.275490761E1
2.247981941E0,3.368351221E0,-1.224458218E1,1.265270615E1
2.258080329E0,3.409606934E0,-1.238220596E1,1.244707680E1
2.268177118E0,3.478539467E0,-1.255971336E1,1.243739891E1
2.278272518E0,3.546428680E0,-1.261576843E1,1.245471668E1
2.288366613E0,3.652579784E0,-1.253265953E1,1.233989906E1
2.298459613E0,3.698137522E0,-1.245109558E1,1.241842175E1
2.309745885E0,3.723196983E0,-1.234937859E1,1.221973896E1
2.319814885E0,3.712200165E0,-1.225647163E1,1.231190681E1
2.329880885E0,3.661212444E0,-1.215579987E1,1.226741505E1
2.339946885E0,3.658698320E0,-1.208804131E1,1.212933731E1
2.350011885E0,3.688962936E0,-1.206644058E1,1.210159683E1
2.360076385E0,3.716113091E0,-1.213443565E1,1.212552261E1
2.370140585E0,3.738071203E0,-1.227664375E1,1.202654362E1
2.380204585E0,3.773899078E0,-1.236299706E1,1.200093079E1
2.390268585E0,3.825778246E0,-1.245811367E1,1.176674747E1
2.400333210E0,3.882136106E0,-1.246191978E1,1.179364204E1
2.410397876E0,3.880863428E0,-1.246086693E1,1.165684700E1
2.420462576E0,3.896230698E0,-1.241177654E1,1.161510086E1
2.430527666E0,3.934859991E0,-1.240582561E1,1.152959061E1
2.440593166E0,3.987638712E0,-1.238308144E1,1.158420372E1
2.450658550E0,3.977734566E0,-1.242932129E1,1.144794273E1
2.460723692E0,3.943511486E0,-1.245822525E1,1.135829735E1
2.470823625E0,3.907197237E0,-1.249379539E1,1.164198685E1
2.480921375E0,3.888035297E0,-1.249308491E1,1.142681885E1
2.491017022E0,3.896584749E0,-1.264888000E1,1.029376221E1
2.501110855E0,3.952556372E0,-1.295098495E1,1.136443138E1
2.511202960E0,4.030908108E0,-1.294866753E1,1.195076942E1
2.521293460E0,4.056693554E0,-1.261451435E1,1.105725861E1
2.531382698E0,4.137873650E0,-1.227920341E1,1.075974560E1
2.541470698E0,4.193995953E0,-1.206668186E1,1.080355263E1
2.551593263E0,4.154386997E0,-1.196765900E1,1.068760586E1
2.561713346E0,4.052309513E0,-1.206107998E1,1.082846642E1
2.571831466E0,3.998246908E0,-1.224184227E1,1.083934784E1
2.581947504E0,4.011435509E0,-1.249370861E1,1.064581490E1
2.592061615E0,4.010227203E0,-1.274279594E1,1.055316544E1
2.602173972E0,4.028362274E0,-1.289879704E1,1.044007397E1
2.612284558E0,4.065639496E0,-1.295929146E1,1.047393703E1
2.622393691E0,4.126841068E0,-1.293122482E1,1.034479332E1
2.632502824E0,4.195060253E0,-1.282593918E1,1.006374454E1
2.642611924E0,4.255417347E0,-1.277258682E1,1.045746803E1
2.652721090E0,4.282904148E0,-1.274512482E1,1.041372204E1
2.662830423E0,4.250363827E0,-1.271972466E1,1.020246315E1
2.672939789E0,4.201941967E0,-1.273145199E1,1.014758778E1
2.683049322E0,4.146614075E0,-1.269698715E1,1.007762051E1
2.693158755E0,4.162694931E0,-1.258085918E1,9.893792152E0
2.703267955E0,4.156839371E0,-1.251009560E1,9.788744926E0
2.713394688E0,4.169589043E0,-1.239867115E1,9.656332016E0
2.723521488E0,4.176890373E0,-1.244991207E1,9.479592323E0
2.733648154E0,4.212234020E0,-1.259665203E1,9.660023689E0
2.743774687E0,4.240128517E0,-1.270245552E1,9.843514442E0
2.753901287E0,4.227511883E0,-1.276006699E1,9.803807259E0
2.764028087E0,4.225094318E0,-1.279084587E1,9.552384377E0
2.774137487E0,4.310954094E0,-1.272814941E1,9.333795547E0
2.784246953E0,4.369515419E0,-1.264890289E1,9.289077759E0
2.795643885E0,4.386731625E0,-1.260323620E1,9.329101562E0
2.805707885E0,4.322521210E0,-1.260279846E1,9.313257217E0
2.815772885E0,4.273197651E0,-1.264725113E1,9.568469048E0
2.825838385E0,4.303569317E0,-1.263846684E1,9.742541313E0
2.835903718E0,4.305758953E0,-1.269618416E1,9.423007011E0
2.845968218E0,4.312506676E0,-1.292577362E1,8.661620140E0
2.856032418E0,4.391837597E0,-1.303111267E1,9.299806595E0
2.866097251E0,4.490272045E0,-1.295693588E1,9.568165779E0
2.876162251E0,4.581759930E0,-1.271961975E1,9.276204109E0
2.886227376E0,4.675571442E0,-1.246515942E1,9.020160675E0
2.896292598E0,4.665477753E0,-1.224663544E1,8.839136124E0
2.906357398E0,4.545289993E0,-1.224555588E1,8.764036179E0
2.916422307E0,4.394607544E0,-1.229890060E1,8.874006271E0
2.926487390E0,4.280007839E0,-1.243561840E1,9.041703224E0
2.936552466E0,4.335127831E0,-1.254334831E1,9.193870544E0
2.946617751E0,4.418843746E0,-1.264352989E1,8.925390244E0
2.956718017E0,4.488173485E0,-1.271947479E1,8.653885841E0
2.966816267E0,4.531961918E0,-1.269175625E1,8.758893013E0
2.976912914E0,4.569470406E0,-1.264411354E1,8.577386856E0
2.987007802E0,4.574258804E0,-1.254797077E1,8.443423271E0
2.997101275E0,4.615023136E0,-1.248733807E1,8.421391487E0
3.007193325E0,4.647839546E0,-1.244102097E1,8.508049965E0
3.017284229E0,4.608094215E0,-1.244237804E1,8.537099838E0
3.027374274E0,4.594205856E0,-1.246514416E1,8.350732803E0
3.037498360E0,4.649014473E0,-1.242831516E1,8.188905716E0
3.047620068E0,4.666235447E0,-1.231800652E1,8.164049149E0
3.057739628E0,4.663341999E0,-1.225317764E1,8.259678841E0
3.067857166E0,4.610618114E0,-1.225439835E1,8.324848175E0
3.077972721E0,4.530385971E0,-1.230468464E1,8.220332146E0
3.088086471E0,4.505869865E0,-1.238071823E1,8.157787323E0
3.098198471E0,4.509606838E0,-1.242817593E1,8.107415199E0
3.108309004E0,4.632365704E0,-1.246634674E1,8.018522263E0
3.118419570E0,4.694611073E0,-1.245437336E1,7.877934456E0
3.128530136E0,4.758536816E0,-1.240641403E1,7.842017651E0
3.138640736E0,4.792619705E0,-1.235859489E1,7.913225174E0
3.148751536E0,4.822955132E0,-1.228973484E1,7.805974960E0
3.158862469E0,4.785735130E0,-1.222840881E1,7.679635048E0
3.168973535E0,4.691332817E0,-1.219790459E1,7.917959213E0
3.179085668E0,4.578443050E0,-1.218115616E1,8.060645103E0
3.189197734E0,4.500192642E0,-1.225559998E1,7.708705425E0
3.199330567E0,4.368310452E0,-1.236468029E1,6.685521126E0
3.209463767E0,4.404068470E0,-1.239869976E1,7.265221119E0
3.219597167E0,4.460696697E0,-1.231728077E1,8.041022301E0
3.229730667E0,4.584772110E0,-1.216137886E1,7.724814415E0
3.239864233E0,4.680625439E0,-1.208606720E1,7.426050186E0
3.249997733E0,4.693455219E0,-1.202233505E1,7.418001175E0
3.260113766E0,4.627966881E0,-1.190204811E1,7.431884289E0
3.270229632E0,4.513684273E0,-1.183003330E1,7.314344406E0
3.281725885E0,4.414867401E0,-1.182611084E1,7.039152145E0
3.291792885E0,4.419386387E0,-1.188361931E1,6.963659286E0
3.301855885E0,4.504612446E0,-1.201559830E1,7.080728531E0
3.311919385E0,4.574705124E0,-1.217149258E1,7.199800014E0
3.321982385E0,4.599061489E0,-1.227192783E1,7.059514999E0
3.332045635E0,4.597629547E0,-1.229799461E1,6.834915638E0
3.342109635E0,4.596620560E0,-1.224892616E1,6.855462074E0
3.352173801E0,4.590609550E0,-1.212007713E1,6.819027901E0
3.362237801E0,4.589288235E0,-1.196947289E1,6.699140549E0
3.372302051E0,4.566695690E0,-1.189783192E1,6.710146427E0
3.382366495E0,4.541677952E0,-1.184312820E1,6.655864239E0
3.392430995E0,4.523433685E0,-1.182906723E1,6.625739098E0
3.402495995E0,4.571317196E0,-1.180760002E1,6.627806664E0
3.412561578E0,4.541609764E0,-1.181661034E1,6.598544121E0
3.422629424E0,4.542717457E0,-1.182968903E1,6.433673859E0
3.432697281E0,4.526971817E0,-1.183782959E1,6.379475594E0
3.442806747E0,4.496444702E0,-1.179797745E1,6.299201012E0
3.452913559E0,4.517790318E0,-1.177953339E1,6.441054821E0
3.463018147E0,4.545598030E0,-1.174122429E1,6.315171242E0
3.473120369E0,4.604403973E0,-1.175805187E1,6.154519081E0
3.483220526E0,4.612710953E0,-1.177954102E1,6.169178009E0
3.493318976E0,4.613400936E0,-1.173639488E1,6.126857281E0
3.503415880E0,4.561438084E0,-1.169615364E1,5.943323135E0
3.513511380E0,4.478699684E0,-1.165125847E1,5.919544697E0
3.524871885E0,4.453448296E0,-1.157697392E1,6.055472374E0
3.534935885E0,4.442865849E0,-1.156574821E1,5.942187309E0
3.544997885E0,4.424155235E0,-1.164675140E1,5.940205574E0
3.555060385E0,4.445921898E0,-1.167522049E1,5.023015022E0
3.565124051E0,4.506441116E0,-1.166453362E1,6.092308044E0
3.575188551E0,4.492491245E0,-1.157674408E1,6.203147411E0
3.585253751E0,4.531122684E0,-1.148425865E1,5.522510052E0
3.595319584E0,4.601995468E0,-1.145299816E1,5.611068726E0
3.605384869E0,4.606888294E0,-1.134730721E1,5.571881771E0
3.615450369E0,4.544032574E0,-1.124035931E1,5.450812340E0
3.625516146E0,4.412598610E0,-1.118495083E1,5.518216133E0
3.635581946E0,4.373772621E0,-1.118139839E1,5.450128555E0
3.645647855E0,4.383067131E0,-1.113736343E1,5.326069832E0
3.655713771E0,4.384674072E0,-1.119122314E1,5.381184578E0
3.665779771E0,4.398119926E0,-1.126503944E1,5.448016167E0
3.675845985E0,4.372456074E0,-1.131371880E1,5.186779976E0
3.685946918E0,4.382256985E0,-1.132671738E1,5.242392540E0
3.696045918E0,4.374537945E0,-1.131958389E1,5.375156403E0
3.706143153E0,4.395797729E0,-1.126769066E1,5.223135948E0
3.716238819E0,4.367588997E0,-1.119984818E1,5.172432899E0
3.726333134E0,4.370889664E0,-1.112781715E1,5.059275627E0
3.736426034E0,4.364874840E0,-1.108678436E1,4.946805954E0
3.746517938E0,4.449004650E0,-1.103037548E1,4.916104794E0
3.756608756E0,4.536773205E0,-1.103238964E1,4.913518906E0
3.766698625E0,4.611512661E0,-1.096869659E1,4.844138145E0
3.776787625E0,4.625535011E0,-1.091124630E1,4.773119450E0
3.786875785E0,4.543200970E0,-1.086913872E1,4.652111053E0
3.796963208E0,4.455818653E0,-1.080112743E1,4.602748871E0
3.807049874E0,4.406210423E0,-1.074818134E1,4.567900658E0
3.817135874E0,4.392261028E0,-1.069672775E1,4.532433987E0
3.827221253E0,4.416318893E0,-1.071896744E1,4.441881180E0
3.837306253E0,4.445211887E0,-1.074341393E1,4.498188019E0
3.847391553E0,4.469374180E0,-1.076714802E1,4.446777821E0
3.857477153E0,4.467658043E0,-1.075908089E1,4.202991486E0
3.867562886E0,4.442171574E0,-1.079273510E1,4.105390072E0
3.877648786E0,4.437581062E0,-1.070362282E1,4.327928066E0
3.887734752E0,4.397538662E0,-1.069208145E1,4.142655849E0
3.897820818E0,4.332776546E0,-1.082657623E1,4.278928757E0
3.907907118E0,4.267829895E0,-1.090600109E1,3.215650082E0
3.917993584E0,4.257440567E0,-1.099413776E1,4.119766712E0
3.928100784E0,4.235368729E0,-1.089099121E1,4.449725151E0
3.938207917E0,4.361216068E0,-1.065215969E1,3.688483715E0
3.948314883E0,4.525516987E0,-1.037485123E1,3.686934471E0
3.958421783E0,4.612594604E0,-1.016688061E1,3.887542248E0
3.968528516E0,4.543992519E0,-1.006346416E1,3.672765255E0
3.978635049E0,4.402890205E0,-1.008912945E1,3.661943913E0
3.988724149E0,4.272455692E0,-1.018601990E1,3.601099968E0
3.998813049E0,4.226599693E0,-1.026691246E1,3.540157795E0
4.010204885E0,4.135841370E0,-1.042871571E1,3.329442024E0
4.020269885E0,4.097726822E0,-1.058468056E1,3.362738609E0
4.030334885E0,4.116975307E0,-1.063316917E1,3.454582214E0
4.040399385E0,4.163699627E0,-1.057796955E1,3.241282463E0
4.050464718E0,4.240601063E0,-1.039157200E1,3.272764206E0
4.060530218E0,4.328880310E0,-1.026541710E1,3.479718685E0
4.070596018E0,4.355311871E0,-1.018207550E1,3.340373039E0
4.080662184E0,4.329612732E0,-1.006057549E1,3.314884663E0
4.090728326E0,4.265485287E0,-9.943181992E0,3.114470482E0
4.100794826E0,4.231670380E0,-9.852054596E0,2.904288292E0
4.110861159E0,4.264158249E0,-9.762451172E0,3.033000469E0
4.120927659E0,4.281685352E0,-9.739048958E0,3.120166779E0
4.130994386E0,4.205946922E0,-9.762454987E0,3.020160198E0
4.141061052E0,4.180780411E0,-9.795158386E0,2.836884975E0
4.151127436E0,4.128806591E0,-9.829179764E0,2.870712757E0
4.161194007E0,4.108033657E0,-9.811863899E0,2.856294632E0
4.171295140E0,4.094732761E0,-9.780031204E0,2.667785168E0
4.181394077E0,4.123547077E0,-9.726548195E0,2.639597893E0
4.191491371E0,4.177989006E0,-9.686412811E0,2.555586338E0
4.201587148E0,4.255644798E0,-9.619859695E0,2.617746830E0
4.211681463E0,4.250965118E0,-9.579206467E0,2.634099007E0
4.221774663E0,4.189547062E0,-9.601701736E0,2.417728424E0
4.231866758E0,4.129257679E0,-9.596154213E0,2.569561005E0
4.241957939E0,4.069935799E0,-9.545844078E0,2.752202511E0
4.252083330E0,4.022811890E0,-9.614062309E0,1.968029976E0
4.262206371E0,4.019454002E0,-9.799905777E0,1.948040485E0
4.272327371E0,4.079671383E0,-9.829872131E0,2.673833370E0
4.282446486E0,3.992438555E0,-9.608839035E0,2.495556355E0
4.292563819E0,4.018499851E0,-9.263832092E0,2.040802002E0
4.302679533E0,4.103276253E0,-8.910209656E0,1.820382118E0
4.312793705E0,4.096856117E0,-8.733963966E0,1.947909832E0
4.322906438E0,4.042513371E0,-8.697028160E0,1.901547432E0
4.333019171E0,3.934246778E0,-8.800136566E0,2.029658794E0
4.343132137E0,3.873989105E0,-8.993808746E0,2.009561539E0
4.353245170E0,3.858963490E0,-9.216789246E0,2.100393295E0
4.363358436E0,3.876298428E0,-9.348012924E0,1.773907185E0
4.373471836E0,3.905398846E0,-9.385932922E0,1.854869366E0
4.383585302E0,3.954640388E0,-9.260804176E0,1.782811642E0
4.393699035E0,3.974868298E0,-9.103685379E0,1.490252972E0
4.403812768E0,3.961950064E0,-9.025951385E0,1.693626404E0
4.413947468E0,3.943238020E0,-8.986388206E0,1.856175423E0
4.424082234E0,3.883124590E0,-8.912503242E0,1.479611397E0
4.434216967E0,3.838693619E0,-8.869402885E0,1.386938572E0
4.444351767E0,3.834909439E0,-8.781332016E0,1.613487244E0
4.454486800E0,3.866959333E0,-8.627184868E0,1.518668652E0
4.464621966E0,3.843322754E0,-8.471753120E0,1.418387413E0
4.474739999E0,3.797757149E0,-8.412881851E0,1.482579231E0
4.484858232E0,3.762958288E0,-8.407359123E0,1.482114792E0
4.495003365E0,3.736202478E0,-8.457261086E0,1.487602234E0
4.505148431E0,3.733357668E0,-8.498612404E0,1.458310127E0
4.515293497E0,3.741500139E0,-8.492235184E0,1.354923248E0
4.525438530E0,3.729338884E0,-8.448491096E0,1.233858585E0
4.535583430E0,3.781506538E0,-8.346396446E0,1.196432590E0
4.545728263E0,3.825926065E0,-8.273490906E0,1.212219238E0
4.555846096E0,3.834118128E0,-8.192631721E0,1.049745083E0
4.565964029E0,3.742660761E0,-8.174938202E0,9.810137749E-1
4.576081895E0,3.621690273E0,-8.172665596E0,9.331493378E-1
4.586199761E0,3.578259945E0,-8.139881134E0,1.260970116E0
4.596317594E0,3.554655313E0,-8.059185982E0,1.147690773E0
4.606435494E0,3.548932791E0,-8.147539139E0,2.339839935E-2
4.616553260E0,3.591979265E0,-8.394611359E0,1.114987373E0
4.626671093E0,3.656049252E0,-8.315051079E0,1.355319977E0
4.636789126E0,3.565633535E0,-8.070650101E0,7.940149307E-1
4.646907026E0,3.632150888E0,-7.623360157E0,6.609067917E-1
4.657045926E0,3.661112309E0,-7.201091766E0,4.675073624E-1
4.667184692E0,3.533258915E0,-7.197034836E0,4.948902130E-1
4.677323525E0,3.375725508E0,-7.356131554E0,1.059637070E0
4.687462291E0,3.306598425E0,-7.634621620E0,9.612388611E-1
4.697600857E0,3.362808466E0,-7.757960796E0,7.525911331E-1
4.707739490E0,3.408223867E0,-7.925483227E0,5.455169678E-1
4.717857356E0,3.417453289E0,-7.942198277E0,2.130336761E-1
4.727975122E0,3.426465511E0,-7.851145744E0,1.178054810E-1
4.738119855E0,3.418588877E0,-7.692050934E0,2.222042084E-1
4.748264521E0,3.417198420E0,-7.519837856E0,5.186367035E-2
4.758410021E0,3.475815535E0,-7.450859070E0,2.421855927E-1
4.768555254E0,3.450415850E0,-7.512815475E0,8.896493912E-1
4.778700320E0,3.342653275E0,-7.532342911E0,1.093690872E0
4.788845120E0,3.247950792E0,-7.489440441E0,8.167791367E-1
4.798962753E0,3.246488571E0,-7.373999596E0,6.103534698E-1
4.809080353E0,3.315250158E0,-7.159503937E0,5.306854248E-1
4.819197819E0,3.332158804E0,-6.950087547E0,3.876762390E-1
4.829315185E0,3.316962481E0,-6.820970535E0,2.265243530E-1
4.839432618E0,3.275285482E0,-6.820616722E0,7.594776154E-2
4.849549884E0,3.224147558E0,-6.815902710E0,6.088161469E-2
4.859667050E0,3.182668686E0,-6.854174614E0,3.669958115E-1
4.869784016E0,3.172318220E0,-6.853734016E0,7.985076904E-1
4.879901149E0,3.102413177E0,-6.783197403E0,6.819181442E-1
4.890018215E0,3.099419832E0,-6.748272896E0,2.672376633E-1
4.900156048E0,3.162466288E0,-6.694736004E0,2.567224503E-1
4.910293714E0,3.291051388E0,-6.653478622E0,2.294559479E-1
4.920431447E0,3.325987339E0,-6.544137001E0,1.780033112E-2
4.930569047E0,3.244076729E0,-6.521311760E0,-5.833625793E-2
4.940706680E0,3.105214357E0,-6.442183018E0,2.926082611E-1
4.950844380E0,3.019481182E0,-6.365195751E0,5.411748886E-1
4.960961080E0,2.898448467E0,-6.431668282E0,1.865196228E-2
4.971077680E0,2.853613615E0,-6.545965672E0,-5.861129761E-1
4.982559885E0,2.904736042E0,-6.565268517E0,2.692108154E-1
4.992626885E0,2.948697329E0,-6.442318916E0,6.440362930E-1
5.002725885E0,3.105225086E0,-6.259593487E0,2.665834427E-1
5.012808885E0,3.187664986E0,-6.045229435E0,1.738548279E-2
5.022886885E0,3.166769028E0,-5.787238121E0,-1.076221466E-2
5.032961885E0,2.932286739E0,-5.701540947E0,-5.203151703E-2
5.043035885E0,2.707144022E0,-5.713768959E0,-8.890628815E-2
5.053109051E0,2.644581318E0,-5.778203964E0,-7.467842102E-2
5.063181336E0,2.716334105E0,-5.826286316E0,-4.494571686E-2
5.073252586E0,2.817958355E0,-5.922879219E0,3.347206116E-2
5.083323363E0,2.881885052E0,-5.957476616E0,1.382017136E-1
5.093393463E0,2.856212854E0,-6.003110886E0,-1.515007019E-2
5.103463372E0,2.812991619E0,-5.973232269E0,-1.148071289E-1
5.113532705E0,2.775197744E0,-5.845483780E0,-2.716255188E-2
5.123602243E0,2.757735491E0,-5.708694458E0,-2.497100830E-2
5.133671314E0,2.723349571E0,-5.546358109E0,-1.989030838E-1
5.143781514E0,2.609161854E0,-5.478560925E0,-1.929559708E-1
5.153888889E0,2.514214277E0,-5.391113758E0,-2.276611328E-1
5.163993947E0,2.522719860E0,-5.312281609E0,-1.521835327E-1
5.174097002E0,2.524004936E0,-5.288520813E0,-9.561729431E-2
5.184198054E0,2.536684036E0,-5.260040283E0,-8.487033844E-2
5.194297404E0,2.527561665E0,-5.247911453E0,-1.003246307E-1
5.204395070E0,2.473532200E0,-5.208059311E0,-1.036281586E-1
5.214491433E0,2.451124191E0,-5.154598236E0,-1.016044617E-1
5.225729885E0,2.424232244E0,-5.090301514E0,-2.594537735E-1
5.235796885E0,2.442610741E0,-5.036942482E0,-3.047323227E-1
5.245861885E0,2.469482899E0,-5.005216599E0,-3.240175247E-1
5.255927385E0,2.505623817E0,-4.957881451E0,-2.211561203E-1
5.265992718E0,2.541686535E0,-4.909791946E0,-2.925376892E-1
5.276058468E0,2.513173342E0,-4.847219944E0,-3.608970642E-1
5.286124868E0,2.437091827E0,-4.787419319E0,-4.575910568E-1
5.296191201E0,2.337112904E0,-4.694895267E0,-2.142419815E-1
5.306257772E0,2.262223244E0,-4.594175816E0,-1.772136688E-1
5.316324397E0,2.177697659E0,-4.634024143E0,-1.822376251E-1
5.326391174E0,2.095995188E0,-4.757169724E0,-9.179401398E-1
5.336457974E0,2.114203453E0,-4.797808647E0,-4.542169571E-1
5.346524974E0,2.114476442E0,-4.709982872E0,1.646938324E-1
5.356592140E0,2.173969746E0,-4.578951359E0,-1.589107513E-2
5.366659832E0,2.306461096E0,-4.323527813E0,-6.618080139E-1
5.376727689E0,2.309673786E0,-4.143386841E0,-4.279241562E-1
5.386837022E0,2.218851566E0,-3.998426437E0,-2.780027390E-1
5.396943959E0,2.064185143E0,-3.940268517E0,-4.210538864E-1
5.407048782E0,1.951637030E0,-3.979224682E0,-3.646640778E-1
5.417151670E0,1.950071931E0,-3.981411457E0,-4.657020569E-1
5.427252827E0,2.026065350E0,-4.014234543E0,-5.398006439E-1
5.437352427E0,2.014362335E0,-4.058049202E0,-3.812818527E-1
5.447450617E0,1.963106036E0,-4.084400177E0,-4.455623627E-1
5.457547480E0,1.896367192E0,-4.086432934E0,-4.882164001E-1
5.467678132E0,1.871071339E0,-4.025882244E0,-2.986412048E-1
5.477806173E0,1.858709693E0,-3.924503803E0,-3.916158676E-1
5.487931853E0,1.847678423E0,-3.836236238E0,-4.360628128E-1
5.498055391E0,1.837883711E0,-3.721047878E0,-4.324407578E-1
5.508176946E0,1.835327506E0,-3.634100914E0,-4.523754120E-1
5.518296660E0,1.832141638E0,-3.560487747E0,-5.223665237E-1
5.528414694E0,1.837706089E0,-3.498157263E0,-4.964418411E-1
5.538530994E0,1.803083420E0,-3.470761776E0,-4.868907928E-1
5.548647327E0,1.778361201E0,-3.471646070E0,-4.386653900E-1
5.558763827E0,1.743243575E0,-3.431383371E0,-4.884185791E-1
5.568880460E0,1.672456861E0,-3.374477863E0,-4.635858536E-1
5.578997126E0,1.635537624E0,-3.323925972E0,-3.904829025E-1
5.589113859E0,1.615309477E0,-3.221505880E0,-4.128417969E-1
5.599230592E0,1.595195889E0,-3.126425505E0,-4.157123566E-1
5.609347625E0,1.591951489E0,-3.067074060E0,-3.703594208E-1
5.619464691E0,1.587388396E0,-2.965066433E0,-3.987607956E-1
5.629603557E0,1.539932847E0,-2.893236637E0,-3.215332031E-1
5.639742390E0,1.491726756E0,-2.857687235E0,-3.971214294E-1
5.649881156E0,1.492106915E0,-2.820728302E0,-2.186136246E-1
5.660019856E0,1.417321563E0,-2.763428450E0,-1.309061050E-1
5.670158456E0,1.371665835E0,-2.753609419E0,-1.619148254E-1
5.680297156E0,1.321444154E0,-2.794980049E0,-3.244924545E-1
5.690415289E0,1.321815252E0,-2.809466839E0,-1.117142677E0
5.700533589E0,1.286499619E0,-2.779612541E0,1.584939957E-1
5.712067885E0,1.261000514E0,-2.620357037E0,-3.821649551E-1
5.722136885E0,1.276747704E0,-2.487251520E0,-7.811613083E-1
5.732206885E0,1.371315360E0,-2.344818592E0,-3.387012482E-1
5.742276385E0,1.344759464E0,-2.133745909E0,-4.944763184E-1
5.752345051E0,1.263638139E0,-1.998397589E0,-5.921459198E-1
5.762413551E0,1.193440437E0,-1.937820911E0,-4.711065292E-1
5.772482151E0,1.169039011E0,-1.983976483E0,-5.220642090E-1
5.782550817E0,1.174365401E0,-2.089200020E0,-4.914941788E-1
5.792618959E0,1.129267097E0,-2.339193821E0,-4.295225143E-1
5.802687084E0,1.081710458E0,-2.510740042E0,-5.321006775E-1
5.812754972E0,9.998228550E-1,-2.595079899E0,-5.048980713E-1
5.822822572E0,9.315800071E-1,-2.532156467E0,-4.630126953E-1
5.832890117E0,9.565195441E-1,-2.331735134E0,-3.370599747E-1
5.842957533E0,9.956561923E-1,-2.148895979E0,-3.258409500E-1
5.853025609E0,9.934526682E-1,-1.955998898E0,-5.685157776E-1
5.863093609E0,9.526634812E-1,-1.837222576E0,-4.880161285E-1
5.873202942E0,9.291736484E-1,-1.719122529E0,-4.481554031E-1
5.883309629E0,9.081080556E-1,-1.634760261E0,-5.925455093E-1
5.893413923E0,9.660694003E-1,-1.575380683E0,-4.921216965E-1
5.903516034E0,9.499326348E-1,-1.534170985E0,-2.690248489E-1
5.913616349E0,9.067644477E-1,-1.531384587E0,-3.252773285E-1
5.923715099E0,8.297900558E-1,-1.516422987E0,-2.925100327E-1
5.933812575E0,7.628582120E-1,-1.540134192E0,-3.599205017E-1
5.943908711E0,7.307208776E-1,-1.455891848E0,-4.243927002E-1
5.954038667E0,7.107616067E-1,-1.368413925E0,-3.517856598E-1
5.964166042E0,7.056215405E-1,-1.301935911E0,-4.557771683E-1
5.974290922E0,6.878650784E-1,-1.244173288E0,-3.915872574E-1
5.984413614E0,6.916204691E-1,-1.153020144E0,-3.820533752E-1
5.994534243E0,6.818906069E-1,-1.097133160E0,-3.652725220E-1
6.004652885E0,6.245874166E-1,-1.045471907E0,-3.078165054E-1
6.014769678E0,5.400791168E-1,-1.010415554E0,-1.282405853E-2
6.024884844E0,4.725448191E-1,-9.929971695E-1,-1.152038574E-2
6.034999877E0,3.980906010E-1,-1.096217155E0,-3.828573227E-1
6.045114943E0,3.891778886E-1,-1.314576149E0,-8.330450058E-1
6.055230143E0,4.199311733E-1,-1.381936073E0,-1.181697845E-2
6.065345509E0,3.907376826E-1,-1.260762691E0,2.647199631E-1
6.075460942E0,4.586350918E-1,-9.904596806E-1,-3.173217773E-1
6.085576442E0,5.475663543E-1,-6.313481331E-1,-5.771303177E-1
6.095692342E0,6.191596985E-1,-3.383913040E-1,-3.520727158E-1
6.105808375E0,5.604156256E-1,-1.338481903E-1,-2.100086212E-1
6.115946275E0,3.783504665E-1,-5.124545097E-2,-1.762094498E-1
6.126084308E0,2.339214087E-1,-1.261532307E-1,-1.554670334E-1
6.136222508E0,2.153116465E-1,-3.407402039E-1,-6.678581238E-2
6.146360874E0,2.278581113E-1,-5.355577469E-1,-1.355504990E-1
6.156498974E0,2.733573914E-1,-8.223538399E-1,-1.726036072E-1
6.166637174E0,3.365594447E-1,-1.021940708E0,-1.766357422E-1
6.176754707E0,3.924854100E-1,-1.024957418E0,-2.221479416E-1
6.186872373E0,3.597644866E-1,-8.883421421E-1,-2.793369293E-1
6.197017239E0,1.498795301E-1,-6.061382294E-1,-1.426830292E-1
6.207162372E0,-7.409332693E-2,-3.642325401E-1,-1.669683456E-1
6.217307805E0,-3.152958155E-1,-2.042779922E-1,-4.848384857E-2
6.227453238E0,-3.471500278E-1,-1.035439968E-1,-2.497081757E-1
6.237598504E0,-2.451052219E-1,-2.689099312E-2,-2.912683487E-1
6.247743837E0,-2.851441503E-3,-2.838587761E-2,-2.749986649E-1
6.257862370E0,2.027538717E-1,-9.146785736E-2,-1.579093933E-1
6.267980903E0,2.732485235E-1,-2.438900471E-1,-7.696151733E-2
6.278099403E0,2.377829254E-1,-3.766131401E-1,-1.618118286E-1
6.288217903E0,2.179022133E-1,-4.570724964E-1,-1.151018143E-1
6.298336303E0,1.736129671E-1,-4.706747532E-1,8.086395264E-2
6.308454703E0,1.210336313E-1,-5.164577961E-1,-7.569313049E-3
6.318572936E0,6.421978027E-2,-4.742434025E-1,-5.547332764E-2
6.328691036E0,7.410703599E-2,-3.802487850E-1,-1.610660553E-1
6.338809136E0,4.468893260E-2,-2.790629864E-1,-8.940887451E-2
6.348927002E0,2.273359150E-2,-2.307875156E-1,-9.286975861E-2
6.359062168E0,-2.766892314E-2,-1.675660610E-1,-1.145811081E-1
6.369197101E0,-4.121401906E-2,-1.180458069E-1,5.943584442E-2
6.379331834E0,4.863229394E-2,-6.087064743E-2,2.575683594E-1
6.389466434E0,1.508157849E-1,1.317763329E-2,1.205825806E-1
6.399600634E0,1.894013584E-1,-1.392216682E-1,-4.519891739E-1
6.409734534E0,2.373986095E-1,-4.505314827E-1,1.297798157E-1
6.419846534E0,2.142739296E-1,-4.747982025E-1,3.465814590E-1
6.429958367E0,1.456468999E-1,-3.423817158E-1,-2.502613068E-1
6.441272885E0,3.136604130E-1,-1.442861557E-2,-3.386430740E-1
6.451343885E0,4.140199423E-1,1.240034103E-1,-2.631807327E-1
6.461436885E0,4.005035162E-1,1.476120949E-1,-2.690534592E-1
6.471518885E0,2.949579060E-1,1.924133301E-1,-1.906328201E-1
6.481598218E0,1.020760834E-1,1.303207874E-1,-1.352195740E-1
6.491674968E0,-7.834931836E-3,-6.189250946E-2,1.688899994E-1
6.501748968E0,-7.469367981E-2,-2.870910168E-1,1.332330704E-1
6.511821801E0,-5.894388258E-2,-5.055563450E-1,-1.611614227E-1
6.521894086E0,7.617302984E-2,-6.123487949E-1,-1.949033737E-1
6.531966086E0,2.728184164E-1,-5.722532272E-1,-3.279647827E-1
6.542038197E0,4.765650928E-1,-4.473819733E-1,-4.214191437E-1
6.552110097E0,6.005211473E-1,-3.774857521E-1,-1.787080765E-1
6.562181824E0,4.503837228E-1,-3.312687874E-1,-2.375278473E-1
6.572253407E0,1.887802184E-1,-3.477671146E-1,-4.568967819E-1
6.582324868E0,-4.710881040E-2,-3.975522518E-1,-3.217840195E-1
6.592396368E0,-1.600956619E-1,-3.511795998E-1,-3.301277161E-1
6.602501834E0,-1.079352573E-1,-2.414629459E-1,-3.892488480E-1
6.612605084E0,-2.445387468E-2,-1.234407425E-1,-2.214097977E-1
6.622706319E0,-3.720803186E-2,-3.096866608E-2,-4.701900482E-2
6.632805819E0,-1.032103449E-1,3.944253922E-2,-4.376983643E-2
6.642903555E0,-1.652380228E-1,2.430486679E-2,-2.743921280E-1
6.652999855E0,-1.556119919E-1,-1.002364159E-1,3.302097321E-2
6.663094807E0,-1.120213941E-1,-1.579492092E-1,-8.229255676E-3
6.673188397E0,-1.151003614E-1,-2.139468193E-1,-1.709060669E-1
6.684372885E0,-8.107358962E-2,-2.044429779E-1,-2.039594650E-1
6.694437885E0,-6.212780997E-2,-1.489741802E-1,-2.176523209E-1
6.704501885E0,-3.204447776E-2,-9.409117699E-2,-2.243814468E-1
6.714565885E0,-1.763470471E-3,-7.900190353E-2,-1.263618469E-1
6.724630218E0,-2.991589904E-2,-1.275141239E-1,-1.270589828E-1
6.734695218E0,-1.164386421E-2,-1.468751431E-1,1.333751678E-1
6.744760618E0,3.567370027E-2,-1.307442188E-1,4.927940369E-1
6.754825784E0,-2.121021599E-2,-1.610312462E-1,-3.150873184E-1
6.764890498E0,-5.584533140E-2,-2.683439255E-1,-8.100490570E-1
6.774955623E0,4.928933084E-2,-2.912809849E-1,1.868638992E-1
6.785020845E0,4.628017545E-2,-1.635501385E-1,6.533002853E-1
6.795086145E0,6.939503551E-2,5.456209183E-2,2.901239395E-1
6.805151417E0,1.967321634E-1,2.519662380E-1,-6.661128998E-2
6.815216583E0,1.732180864E-1,3.352463245E-1,-1.827487946E-1
6.825283967E0,-1.206460595E-2,3.450989723E-1,-4.316577911E-1
6.835351038E0,-1.196764112E-1,3.304061890E-1,-1.985902786E-1
6.845459371E0,-1.044387668E-1,2.404451370E-1,-5.114555359E-2
6.855564933E0,-2.990782261E-3,9.998440742E-2,1.393442154E-1
6.865668227E0,1.428452879E-1,-6.457233429E-2,8.558559418E-2
6.875769393E0,1.893983930E-1,-1.953408718E-1,8.219528198E-2
6.885868761E0,1.268856674E-1,-2.469265461E-1,9.801387787E-2
6.895966411E0,7.777924836E-2,-2.230958939E-1,-1.021118164E-1
6.906062506E0,3.825283051E-2,-1.862607002E-1,-8.491325378E-2
6.916157187E0,4.783289135E-2,-1.631293297E-1,1.576299667E-1
6.927489885E0,1.274820119E-1,-1.264970303E-1,1.206626892E-1
6.937553885E0,1.311718673E-1,-9.390449524E-2,3.752708435E-2
6.947618885E0,1.406619251E-1,-1.046080589E-1,9.702205658E-2
6.957684885E0,1.857343465E-1,-4.351830482E-2,8.850097656E-2
6.967751218E0,2.277573049E-1,1.877665520E-2,7.228565216E-2
6.977817468E0,2.278992385E-1,3.420877457E-2,1.378641129E-1
6.987883868E0,1.712199599E-1,5.430483818E-2,4.633235931E-2
6.997950868E0,9.721705317E-2,2.766227722E-2,-6.153392792E-2
7.008017725E0,6.040094793E-2,2.999353409E-2,-6.877422333E-2
7.018084350E0,3.809939325E-2,2.018141747E-2,-2.820205688E-2
7.028150905E0,2.741418779E-2,6.055831909E-4,2.427196503E-2
7.038217105E0,1.562282443E-3,-7.510185242E-3,-6.230545044E-2
7.048283286E0,-1.504366100E-2,-1.439094543E-3,-1.537380219E-1
7.058349119E0,-8.463114500E-4,1.489233971E-2,-2.940845490E-2
7.068414734E0,1.428000629E-2,5.302596092E-2,-7.896423340E-3
7.078480305E0,8.585774899E-2,7.996940613E-2,3.408432007E-3
7.088587238E0,1.124499887E-1,1.244797707E-1,-4.579067230E-2
7.098691425E0,9.273272753E-2,1.453213692E-1,2.354879379E-1
7.108793366E0,8.457991481E-2,1.440882683E-1,4.753961563E-1
7.118893088E0,-3.157547116E-2,1.760506630E-2,2.110481262E-2
7.128990772E0,-1.009725034E-1,-1.318230629E-1,-6.857013702E-1
7.139086722E0,-6.174990535E-2,-1.779599190E-1,-5.146312714E-2
7.149181102E0,-6.637202203E-2,-8.358573914E-2,3.326435089E-1
7.159274147E0,-6.593129039E-2,-9.615182877E-3,1.617507935E-1
7.169401451E0,9.991118312E-2,5.999231339E-2,-9.717655182E-2
7.179526159E0,1.070970297E-1,1.141560078E-1,-1.908874512E-2
7.189648519E0,-3.030580282E-2,1.905086040E-1,-1.145477295E-1
7.199768634E0,-1.719349921E-1,2.563910484E-1,-5.279827118E-2
7.209886745E0,-2.280481309E-1,2.425653934E-1,-1.664924622E-2
7.220003030E0,-8.252694458E-2,1.093664169E-1,-1.005554199E-2
7.230117512E0,1.364002973E-1,-6.737399101E-2,4.805469513E-2
7.240230378E0,3.344724178E-1,-2.313532829E-1,1.869239807E-1
7.250343344E0,4.060928524E-1,-3.157348633E-1,-5.705261230E-2
7.260456310E0,3.333527446E-1,-2.836894989E-1,-9.691047668E-2
7.270569210E0,1.860193759E-1,-1.813936234E-1,1.997385025E-1
7.280682210E0,7.074849308E-2,-2.709436417E-2,1.906404495E-1
7.290795110E0,1.699493825E-2,5.903172493E-2,1.825523376E-2
7.300907843E0,2.443358302E-2,7.394623756E-2,1.273822784E-2
7.311020876E0,5.621622503E-2,7.670736313E-2,-1.529693604E-2
7.321133909E0,8.546361327E-2,8.768129349E-2,-2.470397949E-2
7.331267675E0,1.808432937E-1,2.698945999E-2,-2.689552307E-2
7.341401508E0,2.224054188E-1,-1.812839508E-2,4.079246521E-2
7.351535341E0,1.545338929E-1,-6.219959259E-2,-2.040958405E-2
7.361669307E0,2.565343678E-2,-4.129147530E-2,-5.277729034E-2
7.371803373E0,-1.051502153E-1,6.327867508E-3,2.512741089E-2
7.381937339E0,-1.835870296E-1,7.081341743E-2,-3.578090668E-2
7.392050605E0,-1.650830954E-1,8.993029594E-2,7.811164856E-2
7.402163938E0,-8.016357571E-2,3.263139725E-2,1.732063293E-2
7.413581885E0,1.617740095E-2,-6.330847740E-2,1.168231964E-1
7.423646885E0,7.177838683E-2,-1.551289558E-1,8.438873291E-2
7.432707885E0,6.374193728E-2,-1.526367664E-1,3.944683075E-2
7.442771885E0,3.175349534E-2,-1.469073296E-1,4.897880554E-2
7.452836885E0,6.410557032E-2,-8.944511414E-2,-1.166181564E-1
7.462900885E0,1.231791675E-1,6.147384644E-3,2.896213531E-2
7.472964218E0,2.578826547E-1,8.550834656E-2,3.917503357E-2
7.483026218E0,2.462645918E-1,5.970096588E-2,1.499366760E-1
7.493087618E0,2.242927700E-1,8.184552193E-2,-5.919408798E-1
7.503148784E0,7.277096808E-2,7.001757622E-2,2.103719711E-1
7.513210069E0,-3.784289956E-2,1.389167309E-1,5.676097870E-1
7.523271319E0,-9.880876541E-2,2.204866409E-1,1.263341904E-1
7.533333207E0,-1.811932921E-1,2.725961208E-1,-2.980995178E-2
7.543395107E0,-3.183866143E-1,2.555851936E-1,-1.844787598E-2
7.553457016E0,-4.608585835E-1,2.489695549E-1,-1.949901581E-1
7.563519182E0,-4.874770343E-1,2.377798557E-1,-1.191558838E-1
7.573629566E0,-3.877173364E-1,1.858317852E-1,4.762744904E-2
7.583736780E0,-1.044510305E-1,9.202480316E-2,2.738590240E-1
7.593841446E0,2.357375324E-1,-9.144306183E-3,3.181371689E-1
7.603943883E0,3.566084206E-1,-1.035830975E-1,2.410383224E-1
7.614044059E0,2.680487633E-1,-1.285490990E-1,1.863765717E-1
7.624142392E0,7.383735478E-2,-1.014831066E-1,2.226257324E-2
7.634238865E0,-3.769811988E-2,-9.169483185E-2,3.127098083E-2
7.644333815E0,-1.437478215E-1,-1.344208717E-1,-5.927848816E-2
7.654466005E0,-2.413037121E-1,-6.365823746E-2,3.779411316E-3
7.664595232E0,-2.845801413E-1,8.884739876E-2,-1.533126831E-2
7.674721579E0,-2.073420435E-1,1.651844978E-1,1.506805420E-1
7.684845287E0,1.330528781E-2,2.122719288E-1,3.204040527E-1
7.694966527E0,2.623130679E-1,2.608141899E-1,2.982616425E-1
7.705085527E0,2.430608869E-1,2.238910198E-1,2.117242813E-1
7.715202341E0,5.713087320E-2,1.571338177E-1,1.016902924E-1
7.725317233E0,-1.795307100E-1,1.282653809E-1,6.180858612E-2
7.735430233E0,-3.228887320E-1,1.364173889E-1,-3.511142731E-2
7.745541699E0,-4.247978628E-1,1.615214348E-2,-5.269145966E-2
7.755653265E0,-3.933746517E-1,-1.136975288E-1,-6.068706512E-2
7.765764998E0,-3.281398416E-1,-2.127723694E-1,-1.262626648E-1
7.775876731E0,-1.947378963E-1,-2.892944813E-1,-7.173442841E-2
7.785988731E0,-9.846910834E-2,-3.504860401E-1,-5.752944946E-2
7.796100931E0,6.732378155E-3,-4.702303410E-1,-1.021862030E-2
7.806213264E0,1.344197690E-1,-4.465293884E-1,2.653026581E-2
7.816343664E0,2.419049144E-1,-3.795807362E-1,-6.925868988E-2
7.826474297E0,2.488948107E-1,-2.067980766E-1,9.130668640E-2
7.836604930E0,1.321739554E-1,5.010318756E-2,2.146053314E-1
7.846735596E0,1.801452413E-2,2.546534538E-1,4.832839966E-2
7.856866329E0,-6.288684905E-2,2.373282909E-1,-4.613151550E-1
7.866997129E0,-7.894066721E-2,1.673071384E-1,-3.200950623E-1
7.877107062E0,-4.219396785E-2,1.240527630E-1,5.429077148E-1
7.887216995E0,3.186849877E-2,1.953926086E-1,3.024272919E-1
7.898581885E0,2.295430899E-1,3.463993073E-1,-1.254615784E-1
7.908643885E0,2.959875464E-1,3.955798149E-1,6.804180145E-2
7.918703885E0,2.189500332E-1,4.246079922E-1,7.624912262E-2
7.928763385E0,9.159670770E-2,3.954961300E-1,-1.375331879E-1
7.938822385E0,-9.451065212E-2,1.747441292E-1,-1.038417816E-1
7.948882635E0,-2.663451731E-1,-1.309974194E-1,-1.104030609E-1
7.958942635E0,-3.573873937E-1,-4.133403301E-1,-1.147813797E-1
7.969002801E0,-3.577731848E-1,-7.049541473E-1,1.172733307E-2
7.979062229E0,-2.524425387E-1,-8.280692101E-1,1.209259033E-3
7.989122479E0,-8.089399338E-2,-7.741730213E-1,-8.984375000E-2
7.999183145E0,7.738178968E-2,-5.633215904E-1,-1.435308456E-1
8.009244145E0,2.698715031E-1,-3.067958355E-1,-1.076049805E-1
8.019304872E0,3.240663409E-1,-6.926226616E-2,7.925128937E-2
8.029365955E0,2.633753717E-1,1.433780193E-1,1.187744141E-1
8.039427570E0,1.330467165E-1,2.138612270E-1,2.925539017E-1
8.049488998E0,3.916588426E-2,2.712233067E-1,2.222185135E-1
8.059587864E0,2.706646919E-4,4.856657982E-1,1.172447205E-2
8.069684614E0,3.753039986E-2,4.776709080E-1,-4.931926727E-2
8.079779496E0,7.369279861E-2,4.260830879E-1,1.283254623E-1
8.089872607E0,1.017149240E-1,2.552220821E-1,1.457433701E-1
8.099964080E0,6.178934127E-2,8.256077766E-2,-5.782127380E-2
8.110054130E0,-4.620499909E-3,-6.608748436E-2,-1.991386414E-1
8.120142796E0,-3.984174132E-2,-1.976168156E-1,6.760406494E-2
8.130230296E0,-7.247465849E-2,-2.452008724E-1,3.366756439E-2
8.140351861E0,-2.409249544E-2,-2.457816601E-1,-5.327510834E-2
8.150470944E0,4.485952854E-2,-2.175421715E-1,-3.961372375E-2
8.160587704E0,1.391353905E-1,-9.275197983E-2,1.507377625E-2
8.170702165E0,2.019008249E-1,-5.470752716E-2,2.645492554E-2
8.180814498E0,2.214508951E-1,2.643346786E-2,6.562900543E-2
8.190925105E0,1.410782486E-1,8.189177513E-2,1.157760620E-3
8.201034070E0,5.563132465E-2,9.257817268E-2,3.008909225E-1
8.211141503E0,3.181095421E-2,1.924962997E-1,2.211561203E-1
8.221248936E0,-2.725515515E-2,1.133902073E-1,-5.617961884E-1
8.231356502E0,-5.495178699E-2,-1.457004547E-1,-1.435298920E-1
8.241464202E0,6.983973086E-3,-3.093316555E-1,7.861251831E-1
8.251571768E0,5.709737539E-2,-2.388265133E-1,1.020030975E-1
8.261679301E0,1.300328374E-1,-8.165311813E-2,-1.740512848E-1
8.271786934E0,1.885620058E-1,1.472308636E-1,-3.770790100E-1
8.281895167E0,1.207958609E-1,2.592899799E-1,-3.889064789E-1
8.292003333E0,-2.229961753E-2,2.956976891E-1,-3.557529449E-1
8.302128733E0,-1.192639098E-1,2.301735878E-1,-2.317428589E-3
8.312254133E0,-9.922960401E-2,9.294581413E-2,2.649822235E-1
8.322379699E0,-6.545724720E-2,-5.855035782E-2,2.081708908E-1
8.332505065E0,-4.167450964E-2,-1.377904415E-1,-1.630458832E-1
8.342630131E0,-6.043035910E-2,-2.689783573E-1,-2.634143829E-1
8.352755164E0,-4.192194343E-2,-2.780673504E-1,-1.521396637E-1
8.362861430E0,4.749096930E-3,-1.831433773E-1,-3.445043564E-1
8.372967530E0,2.129577845E-2,-1.011860371E-1,-3.984079361E-1
8.384354885E0,5.982775986E-2,-1.510851383E-1,4.800415039E-2
8.394416885E0,4.510244727E-2,-1.792654991E-1,7.308578491E-2
8.404479885E0,1.519472152E-2,-1.690886021E-1,1.105976105E-2
8.414542385E0,1.623480022E-2,-1.403877735E-1,-5.931377411E-2
8.424604051E0,-7.963456213E-3,-4.153156281E-2,-3.171043396E-1
8.434665551E0,-3.127261251E-2,4.934668541E-2,-3.611898422E-1
8.444728151E0,-5.699077249E-2,1.323087215E-1,-2.097215652E-1
8.454790984E0,-2.670176327E-2,1.773540974E-1,-8.347320557E-2
8.464853698E0,4.213385284E-3,1.978807449E-1,8.324432373E-2
8.474916823E0,4.924818873E-3,1.198127270E-1,1.482791901E-1
8.484979823E0,2.016214281E-2,-1.629853249E-2,9.242534637E-2
8.495043523E0,4.581010342E-2,-9.167504311E-2,-1.028671265E-1
8.505107341E0,5.581577122E-2,-8.760190010E-2,-3.051500320E-1
8.515171424E0,8.658132702E-2,4.244565964E-2,-4.326171875E-1
8.525235577E0,1.671356857E-1,1.381728649E-1,-3.104505539E-1
8.535299719E0,1.744463891E-1,1.960320473E-1,-2.120285034E-1
8.545398852E0,1.433901191E-1,1.890559196E-1,-9.691524506E-2
8.555495914E0,9.643208981E-2,1.233463287E-1,9.524440765E-2
8.565591149E0,9.814454615E-2,6.669759750E-2,2.977132797E-1
8.575684537E0,1.178717613E-1,2.769875526E-2,4.598560333E-1
8.585776168E0,8.828003705E-2,-1.767847538E-1,-1.724967957E-1
8.595866168E0,2.186644077E-2,-4.599330425E-1,-5.523777008E-1
8.605954739E0,1.484002173E-2,-6.654677391E-1,1.351213455E-1
8.616042148E0,7.051333785E-3,-5.518567562E-1,2.169332504E-1
8.626163408E0,4.828876257E-2,-2.237043381E-1,-5.891609192E-2
8.636282366E0,1.023085564E-1,1.750555038E-1,-2.257976532E-1
8.646400326E0,1.316845566E-1,5.335812569E-1,-3.079137802E-1
8.656516095E0,6.653487682E-2,6.789200306E-1,-3.684921265E-1
8.666629872E0,-3.250123560E-2,5.976626873E-1,-5.522727966E-2
8.676741657E0,-1.363685280E-1,3.437829018E-1,1.286602020E-1
8.686851622E0,-2.055763304E-1,-4.352331161E-3,2.633504868E-1
8.696959955E0,-2.346133292E-1,-2.796564102E-1,1.556310654E-1
8.707068121E0,-1.991772056E-1,-4.181613922E-1,-3.744125366E-3
8.717176254E0,-1.253431141E-1,-3.937010765E-1,-8.885383606E-3
8.727284520E0,-6.848224998E-2,-3.041961193E-1,-1.168088913E-1
8.737392720E0,-2.793134749E-2,-1.671242714E-1,-1.889514923E-1
8.747500586E0,-4.479178786E-2,-4.736185074E-2,7.482910156E-2
8.757608286E0,-5.703970790E-2,-1.912474632E-2,1.214847565E-1
8.767715986E0,-6.426753104E-2,3.675651550E-2,1.317987442E-1
8.777823452E0,-2.093452215E-2,3.650736809E-2,1.048183441E-1
8.787949118E0,2.431806922E-2,3.021764755E-2,9.356498718E-3
8.798074618E0,1.016906351E-1,3.970646858E-2,5.473804474E-2
8.808200351E0,1.228140444E-1,1.324036121E-1,-1.171302795E-2
8.818325984E0,8.639031649E-2,1.526501179E-1,-1.998996735E-2
8.828451584E0,5.685518682E-2,1.358017921E-1,-3.016567230E-2
8.838577184E0,-4.266023636E-3,6.926846504E-2,-4.966545105E-2
8.848685384E0,-4.274615645E-2,-1.188635826E-2,5.286979675E-2
8.858793650E0,-1.156882793E-1,-1.558227539E-1,1.336650848E-1
8.870188885E0,-9.937722981E-2,-1.593904495E-1,1.614170074E-1
8.880255885E0,-5.026537180E-2,-5.630850792E-2,1.288442612E-1
8.890323885E0,6.778147817E-2,6.010651588E-2,1.413049698E-1
8.900389885E0,1.332363933E-1,1.828489304E-1,1.773662567E-1
8.910455551E0,1.907732338E-1,2.227771282E-1,1.721744537E-1
8.920520801E0,1.642944664E-1,1.580088139E-1,9.445667267E-2
8.930586601E0,7.894122601E-2,4.511761665E-2,2.512588501E-1
8.940652101E0,8.524015546E-3,-5.798816681E-3,6.866397858E-1
8.950717529E0,1.172444224E-2,-7.729506493E-2,3.959760666E-1
8.960782904E0,8.490274847E-2,-1.371936798E-1,-3.847818375E-1
8.970847904E0,7.407245040E-2,-1.181631088E-1,-8.370428085E-1
8.980912204E0,-1.076400727E-1,-5.265140533E-2,5.830783844E-1
8.990976385E0,-3.962293863E-1,-2.708435059E-3,9.220190048E-1
9.001040218E0,-2.483285964E-2,6.538844109E-2,-3.968563080E-1
9.011103987E0,4.227750599E-1,2.823133469E-1,-5.540161133E-1
9.021167558E0,4.484210908E-1,3.697481155E-1,-4.357051849E-2
9.031273424E0,1.974532604E-1,3.024384975E-1,5.252170563E-2
9.041376299E0,-9.969367832E-2,1.663882732E-1,3.536415100E-2
9.051476710E0,-2.094390243E-1,1.049621105E-1,-1.994724274E-1
9.061574765E0,-1.291940212E-1,-9.642839432E-3,-6.246566772E-4
9.071670922E0,-6.786543876E-2,-8.696889877E-2,5.655479431E-2
9.081765322E0,-1.149475425E-1,-2.104253769E-1,4.592132568E-2
9.091858036E0,-1.964413971E-1,-2.893857956E-1,2.481079102E-2
9.101949399E0,-3.331407905E-1,-2.920608521E-1,1.663913727E-1
9.112075051E0,-2.868677676E-1,-2.146952152E-1,1.518344879E-1
9.122198259E0,-1.000705138E-1,-4.008603096E-2,-7.952022552E-2
9.132319339E0,7.168968022E-2,8.020973206E-2,-2.717742920E-1
9.142438108E0,8.528689295E-2,6.670188904E-2,-4.587364197E-2
9.152554922E0,-4.278445616E-3,-5.757808685E-2,1.937198639E-2
9.162669957E0,-9.196191281E-2,-3.664803505E-2,4.598808289E-2
9.172783370E0,-1.179899871E-1,4.424595833E-2,5.349063873E-2
9.182895236E0,-1.005921289E-1,1.407525539E-1,8.302974701E-2
9.193006969E0,-4.042005539E-2,1.720697880E-1,1.109018326E-1
9.203118802E0,-1.902729273E-3,2.020981312E-1,5.061721802E-2
9.213230835E0,7.028952241E-2,1.836781502E-1,-5.776977539E-2
9.223343201E0,8.404522389E-2,1.498029232E-1,-1.378059387E-3
9.233455534E0,6.104615331E-2,8.567810059E-3,9.632110596E-5
9.243567934E0,2.128514461E-2,-2.152991295E-1,6.906223297E-2
9.253680700E0,1.437984854E-1,-3.652119637E-2,9.988784790E-2
9.263793533E0,3.150328994E-1,2.002799511E-1,4.859542847E-2
9.273923899E0,3.170062304E-1,1.697494984E-1,-1.062688828E-1
9.284054499E0,2.733414769E-1,1.222198009E-1,8.832263947E-2
9.294185232E0,1.077234298E-1,8.238744736E-2,5.391120911E-3
9.304316198E0,-8.157204092E-2,1.270821095E-1,6.731700897E-2
9.314447164E0,-2.234107703E-1,1.465282440E-1,1.689062119E-1
9.324578197E0,-3.703380525E-1,7.683444023E-2,3.818864822E-1
9.334687997E0,-3.322381675E-1,2.505183220E-2,-3.947954178E-1
9.344797930E0,-1.996423304E-1,-2.867531776E-2,-1.834163666E-1
9.356169885E0,-7.671145350E-2,1.997661591E-2,5.548439026E-1
9.366234885E0,2.507211640E-2,9.654164314E-2,-3.506946564E-2
9.376300885E0,1.143915951E-1,1.135346889E-1,-1.550512314E-1
9.386367385E0,1.186527610E-1,-3.943967819E-2,2.181892395E-1
9.396433718E0,1.518201530E-1,-6.810736656E-2,1.469535828E-1
9.406500218E0,1.287271380E-1,-7.188200951E-2,9.763336182E-2
9.416566418E0,5.333422497E-2,-1.274919510E-2,7.011985779E-2
9.426632751E0,1.500219293E-2,4.368448257E-2,-1.735782623E-2
9.436698608E0,-9.088785946E-2,-7.082748413E-2,-3.576183319E-2
9.446764233E0,-1.085213944E-1,-2.337152958E-1,-4.625415802E-2
9.456829566E0,-1.291844249E-2,-2.204635143E-1,2.607727051E-2
9.466894766E0,1.534641087E-1,-1.079463959E-1,-2.236843109E-2
9.476960038E0,2.161182463E-1,9.884834290E-2,7.557773590E-2
9.487025288E0,7.802034169E-2,3.004941940E-1,2.164745331E-1
9.497094980E0,-2.642131448E-1,5.696763992E-1,1.196203232E-1
9.507164194E0,-4.370224476E-1,5.882761478E-1,6.528186798E-2
9.517268127E0,-2.093641311E-1,6.341261864E-1,8.701419830E-2
9.527369627E0,9.670929611E-2,5.339372158E-1,1.593589783E-3
9.537468979E0,2.534976006E-1,2.625961304E-1,1.326551437E-1
9.547566479E0,3.841397166E-1,3.186058998E-2,-2.844238281E-2
9.557662373E0,4.702179730E-1,-1.173450947E-1,-8.113861084E-3
9.567756773E0,4.309003949E-1,-3.072011471E-1,1.121921539E-1
9.577849773E0,3.377950788E-1,-3.047189713E-1,-4.162502289E-2
9.587941500E0,1.794764996E-1,-2.117979527E-1,-8.218860626E-2
9.599232885E0,-1.136947721E-1,-1.129558086E-1,-1.216983795E-2
9.609300885E0,-4.082739651E-1,-1.393580437E-1,-2.143192291E-2
9.619364885E0,-6.359032393E-1,-2.231166363E-1,1.952171326E-3
9.629430385E0,-6.280179620E-1,-2.579073906E-1,4.158973694E-2
9.639495385E0,-4.505977631E-1,-2.273852825E-1,1.293802261E-1
9.649559635E0,-1.185649335E-1,-1.287453175E-1,4.282855988E-2
9.659624635E0,5.225848407E-2,-5.208253860E-3,-1.639776230E-1
9.669689968E0,5.449822545E-2,5.091667175E-2,-2.329902649E-1
9.679754825E0,-5.719437450E-2,5.337738991E-2,-7.448196411E-4
9.689820075E0,-2.454577982E-1,5.945920944E-3,8.411598206E-2
9.699885852E0,-3.870930076E-1,-1.862928867E-1,1.781196594E-1
9.709951652E0,-4.539200366E-1,-4.359006882E-1,-3.004226685E-1
9.720017652E0,-3.655976951E-1,-5.627791882E-1,-2.433357239E-1
9.730083568E0,-2.085933685E-1,-4.674212933E-1,4.661073685E-1
9.740149337E0,1.705145277E-2,-2.115933895E-1,1.134691238E-1
9.750215337E0,2.557721436E-1,6.526780128E-2,-7.029628754E-2
9.760323137E0,3.781090379E-1,4.065814018E-1,6.190490723E-2
9.770428512E0,3.226846457E-1,5.860247612E-1,1.393947601E-1
9.780531688E0,1.947310269E-1,5.747296810E-1,1.343240738E-1
9.790632743E0,1.364673078E-1,4.245936871E-1,1.915149689E-1
9.800731953E0,1.705699116E-1,1.583235264E-1,1.228122711E-1
9.810829403E0,2.008562684E-1,-1.181883812E-1,-8.354091644E-2
9.820925164E0,2.332262546E-1,-2.859036922E-1,-2.894783020E-1
9.831019527E0,2.485168278E-1,-4.134988785E-1,-2.256278992E-1
9.841112483E0,2.539650500E-1,-4.568905830E-1,-1.094837189E-1
9.851204274E0,1.892536432E-1,-5.021874905E-1,-2.124767303E-1
9.861294834E0,1.086656600E-1,-5.419092178E-1,-1.092462540E-1
9.871384334E0,5.436711013E-3,-6.449294090E-1,5.917453766E-2
9.881472815E0,-9.188073874E-2,-6.560771465E-1,2.926254272E-2
9.891560565E0,-1.187336370E-1,-2.930474281E-1,5.855560303E-2
9.901647427E0,-6.639051437E-2,3.414266109E-1,-1.109619141E-1
9.911733527E0,8.059863001E-3,7.092826366E-1,-3.566741943E-3
9.921819493E0,1.032269001E-1,1.008590698E0,1.305198669E-1
9.931905226E0,1.703513861E-1,9.181003571E-1,1.316709518E-1
9.941990992E0,1.075641215E-1,5.587122440E-1,2.847957611E-1
9.952076792E0,3.167538717E-2,1.738429070E-1,1.753807068E-1
9.962162292E0,-2.249269560E-2,-1.230649948E-1,9.445095062E-2
9.972247692E0,-8.106616884E-2,-3.290266991E-1,1.533279419E-1
9.982333325E0,-9.381536394E-2,-2.928273678E-1,6.006717682E-2
9.992418858E0,-1.314581633E-1,-1.425390244E-1,1.531124115E-2
1.000252489E1,-2.964669466E-2,1.885311604E-1,-7.416725159E-3
1.001263086E1,-1.916723885E-2,2.143006325E-1,7.675170898E-3
1.002273669E1,-7.256108802E-3,1.156558990E-1,-8.589172363E-2
1.003284259E1,-5.281389132E-2,-1.156549454E-1,-1.535148621E-1
1.004294859E1,-1.673353612E-1,-3.472743034E-1,-7.904720306E-2
1.005305456E1,-1.767888218E-1,-3.558180332E-1,1.329803467E-2
1.006313972E1,-8.395320177E-2,-2.278442383E-1,5.136384964E-1
1.007322482E1,-3.599522170E-3,-7.416844368E-2,1.494216919E-1
1.008450588E1,1.357701272E-1,-1.736898422E-1,-6.158313751E-1
1.009457288E1,1.345593780E-1,-3.369328976E-1,4.216480255E-1
1.010463888E1,1.051459834E-2,-3.091120720E-1,3.609800339E-1
1.011470439E1,-5.339607596E-4,-1.532700062E-1,-2.905979156E-1
1.012476905E1,1.822590642E-2,7.947540283E-2,-4.172935486E-1
1.013483430E1,-3.290821798E-3,2.285075188E-1,-3.256320953E-1
1.014489950E1,-5.932685360E-2,3.252706528E-1,-1.595726013E-1
1.015496433E1,-1.231940165E-1,2.908506393E-1,1.517858505E-1
1.016502790E1,-1.127849966E-1,1.818497181E-1,1.723461151E-1
1.017509078E1,-6.431235373E-2,-4.420113564E-2,1.360340118E-1
1.018515378E1,-4.584953189E-3,-1.790950298E-1,-1.286115646E-1
1.019521708E1,6.581121683E-2,-1.786828041E-1,-2.347459793E-1
1.020528035E1,1.159343719E-1,-6.242322922E-2,-8.576488495E-2
1.021534402E1,1.612436175E-1,4.101729393E-2,-5.587673187E-2
1.022540794E1,1.640539169E-1,9.901142120E-2,-3.932418823E-1
1.023547194E1,1.514121741E-1,-6.273031235E-2,-1.309394836E-2
1.024557114E1,1.538053602E-1,-1.699731350E-1,1.451215744E-1
1.025566833E1,1.259310544E-1,-2.180254459E-1,-3.595066071E-2
1.026576374E1,8.410882950E-2,-1.765589714E-1,-6.437206268E-2
1.027585746E1,3.081833199E-2,-1.368134022E-1,-8.629322052E-2
1.028594957E1,1.489420235E-2,4.493713379E-3,-2.643966675E-1
1.029604017E1,9.417049587E-3,8.356547356E-2,-3.826427460E-1
1.030612955E1,-1.842709072E-2,7.355213165E-2,-4.034032822E-1
1.031621786E1,-9.488653392E-3,3.589677811E-2,-1.857481003E-1
1.032748189E1,8.025368303E-2,-5.871057510E-3,8.724308014E-2
1.033754789E1,3.450816125E-2,-1.727159023E-1,1.172294617E-1
1.034760889E1,-5.757584423E-2,-3.406562805E-1,5.723190308E-2
1.035766939E1,-9.931940585E-3,-2.317762375E-1,-9.650039673E-2
1.036772938E1,2.098057233E-2,-8.054709435E-2,-1.825323105E-1
1.037778889E1,3.613002598E-3,1.223349571E-2,-2.320861816E-1
1.038784828E1,-1.130589470E-2,3.790450096E-2,-1.954774857E-1
1.039790745E1,-4.694551229E-3,1.225690842E-1,-2.190685272E-1
1.040796631E1,-5.082245916E-2,1.685419083E-1,-2.547855377E-1
1.041802518E1,-1.707602143E-1,-5.377531052E-3,-1.897974014E-1
1.042808407E1,-1.538399458E-1,-8.890581131E-2,9.618377686E-2
1.043814327E1,-9.202741832E-2,-8.891129494E-2,5.362501144E-1
1.044820218E1,-6.002546847E-2,-1.019451618E-1,6.370449066E-2
1.045826110E1,-5.208915472E-2,-2.147741318E-1,-4.339485168E-1
1.046832271E1,2.121441066E-4,-2.721052170E-1,-3.792381287E-2
1.047838414E1,5.114738643E-2,-1.513059139E-1,4.399394989E-1
1.048848694E1,7.345314324E-2,-8.458614349E-3,1.399297714E-1
1.049858688E1,1.631177068E-1,2.054336071E-1,-1.609125137E-1
1.050868435E1,1.507626921E-1,4.037613869E-1,-2.223749161E-1
1.051877968E1,4.829155281E-2,4.034714699E-1,-3.522605896E-1
1.052887305E1,-6.820238382E-2,3.584926128E-1,-1.586084366E-1
1.053896460E1,-2.044059932E-1,1.527016163E-1,2.671270370E-1
1.054905445E1,-1.315017194E-1,5.835556984E-2,2.820701599E-1
1.055914314E1,-1.162788272E-1,-1.506609917E-1,9.887123108E-2
1.056926614E1,-3.111282364E-2,-3.056077957E-1,-1.086740494E-1
1.057938651E1,3.699000552E-2,-2.310335636E-1,-4.244327545E-2
1.058950459E1,7.790932059E-2,-1.326942444E-1,-1.860113144E-1
1.059962040E1,7.992116362E-2,4.032993317E-2,-2.384080887E-1
1.060973406E1,4.975625873E-2,9.412193298E-2,-1.541366577E-1
1.061984581E1,7.127657533E-3,1.095278263E-1,1.130285263E-1
1.062995581E1,-2.166523412E-2,5.583977699E-2,1.610097885E-1
1.064006415E1,-5.449771509E-2,8.017778397E-3,1.150894165E-1
1.065017245E1,-4.362323508E-2,-2.498269081E-2,1.129331589E-1
1.066028091E1,-6.261438131E-3,-6.223893166E-2,1.473932266E-1
1.067038951E1,6.028503925E-2,4.961013794E-3,6.418418884E-2
1.068049815E1,1.976473629E-2,7.629776001E-2,1.758384705E-2
1.069060691E1,-2.565401047E-2,8.747005463E-2,9.153175354E-2
1.070071581E1,-1.539850235E-2,-2.729034424E-2,4.615306854E-2
1.071082511E1,3.695661575E-2,-4.663848877E-2,1.035671234E-1
1.072093454E1,8.515588194E-2,-2.479887009E-2,5.342864990E-2
1.073106154E1,1.263047308E-1,-1.954865456E-2,8.236789703E-2
1.074118864E1,1.320456564E-1,-1.652884483E-2,7.066535950E-2
1.075131601E1,1.238372400E-1,1.446962357E-2,-1.317119598E-2
1.076144354E1,9.341865033E-2,8.983302116E-2,-3.280544281E-2
1.077157011E1,5.722275376E-2,9.901428223E-2,1.025800705E-1
1.078169674E1,2.327890694E-2,1.113102436E-1,8.167648315E-2
1.079180284E1,4.780665785E-2,9.791946411E-2,-5.006599426E-2
1.080190921E1,4.289079458E-2,8.258199692E-2,4.580020905E-2
1.081204277E1,7.104596496E-2,1.357085705E-1,4.185314178E-1
1.082217647E1,6.388027966E-2,1.095004082E-1,3.060541153E-1
1.083231057E1,7.329389453E-3,-3.012394905E-2,-4.441366196E-1
1.084244487E1,-3.769344091E-2,-1.524143219E-1,-4.810905457E-1
1.085257944E1,3.919164091E-2,-2.047181129E-2,4.528732300E-1
1.086271394E1,3.570956737E-2,-5.443096161E-3,3.508024216E-1
1.087282131E1,9.554347396E-2,-7.666993141E-2,-1.269340515E-3
1.088292874E1,1.616735160E-1,6.206750870E-2,-9.880065918E-3
1.089303617E1,8.940639347E-2,2.584476471E-1,1.451492310E-2
1.090314377E1,-7.719674706E-2,3.121972084E-1,-1.512756348E-1
1.091325157E1,-1.920356750E-1,2.454216480E-1,-7.461929321E-2
1.092335950E1,-1.748162806E-1,1.636996269E-1,-6.043910980E-2
1.093346757E1,-9.261818975E-2,8.673238754E-2,-8.072853088E-2
1.094357587E1,-7.745720446E-3,-3.083705902E-3,-1.277160645E-2
1.095368440E1,1.371939778E-1,-1.189255714E-2,1.301870346E-1
1.096379297E1,4.861696064E-2,-7.609105110E-2,3.694057465E-2
1.097391870E1,-1.017731950E-1,-1.475498676E-1,1.072311401E-2
1.098404460E1,-1.342111230E-1,-9.410429001E-2,2.408590317E-1
1.099417040E1,-1.573986709E-1,-3.472971916E-2,1.913185120E-1
1.100429630E1,-1.577228308E-1,4.983901978E-3,1.272058487E-1
1.101442210E1,-5.593512580E-2,8.547401428E-2,4.543685913E-2
1.102454794E1,-6.030052900E-4,3.341817856E-2,-4.716873169E-2
1.103465644E1,2.441532910E-2,-2.304410934E-2,-1.046304703E-1
1.104476497E1,9.338102490E-2,-2.307438850E-2,-1.017093658E-1
1.105617788E1,7.765033841E-2,1.057291031E-2,-2.598190308E-2
1.106624489E1,3.373981267E-2,1.233935356E-2,5.516529083E-2
1.107630988E1,1.581646502E-3,1.457142830E-2,7.424545288E-2
1.108637439E1,-5.939553306E-2,3.845167160E-2,8.857536316E-2
1.109643872E1,-2.251783013E-2,9.159684181E-2,1.414251328E-1
1.110650372E1,-4.345854744E-2,2.283620834E-2,7.464313507E-2
1.111656852E1,-1.583725959E-2,-2.650022507E-3,3.153800964E-3
1.112663352E1,1.830025017E-2,3.232240677E-2,3.246212006E-2
1.113669838E1,9.528031945E-2,7.206726074E-2,3.543090820E-2
1.114676338E1,1.056810096E-1,8.624124527E-2,-2.927398682E-2
1.115682815E1,9.593833983E-2,7.202982903E-2,-6.605434418E-2
1.116689285E1,7.781349123E-2,3.238964081E-2,-8.187294006E-2
1.117695740E1,3.656180203E-2,2.108383179E-2,-8.348369598E-2
1.118702190E1,-1.961015910E-2,7.619762421E-2,2.005071640E-1
1.119708636E1,-8.189608157E-2,9.351325035E-2,2.007217407E-1
1.120715079E1,-8.782157302E-2,-2.767252922E-2,1.034307480E-1
1.121724972E1,-8.873765916E-2,-1.587891579E-1,-5.905237198E-1
1.122734641E1,-3.652754426E-2,-9.799861908E-2,3.150558472E-1
1.123744099E1,1.841317117E-2,-4.676580429E-3,5.320472717E-1
1.124753383E1,9.229750186E-2,9.595179558E-2,-1.726932526E-1
1.125762514E1,1.080374718E-1,1.241469383E-1,-1.157789230E-1
1.126771494E1,8.738449216E-2,1.441068649E-1,3.977680206E-2
1.127780337E1,2.047675103E-2,2.182745934E-1,-4.734611511E-2
1.128789069E1,-6.642670929E-2,1.488735676E-1,5.083274841E-2
1.129801217E1,-1.039610505E-1,2.605819702E-2,6.013298035E-2
1.130813129E1,-2.071348578E-2,-7.979631424E-3,-2.478694916E-2
1.131824813E1,3.384582698E-2,1.484274864E-2,-4.590034485E-3
1.132836298E1,9.511090815E-3,1.790237427E-2,5.938053131E-2
1.133847594E1,-3.692932799E-2,-6.178140640E-3,9.283542633E-2
1.134858726E1,-4.823459685E-2,-5.963253975E-2,7.577514648E-2
1.135869702E1,-3.122574091E-2,-7.130980492E-2,2.282047272E-1
1.136880528E1,5.936622620E-5,1.793408394E-2,1.557197571E-1
1.137891345E1,2.355740219E-2,7.196021080E-2,1.026382446E-1
1.138902158E1,2.644325793E-2,7.332730293E-2,-3.115653992E-3
1.139912968E1,-1.344520971E-2,2.533078194E-2,3.900909424E-2
1.140923758E1,-4.472670332E-2,-4.979848862E-3,3.988456726E-2
1.141934542E1,-4.141823202E-2,-2.282857895E-3,5.015659332E-2
1.142945322E1,-3.349345177E-3,5.253982544E-2,3.238773346E-2
1.143956132E1,1.131301746E-2,9.034514427E-2,8.246135712E-2
1.144966935E1,2.062116191E-2,1.076641083E-1,1.353330612E-1
1.145979472E1,6.472165883E-2,1.163268089E-1,1.310968399E-1
1.146992005E1,7.286222279E-2,1.280846596E-1,8.881950378E-2
1.148004535E1,2.833692729E-2,1.305055618E-1,1.064872742E-1
1.149017061E1,7.585082203E-3,1.144628525E-1,3.822803497E-2
1.150029581E1,-3.461400047E-2,1.082127094E-1,5.624008179E-2
1.151042105E1,-2.156425640E-2,1.092090607E-1,2.160644531E-2
1.152052891E1,6.095066667E-3,8.350849152E-2,7.542228699E-2
1.153063678E1,3.389342874E-2,8.569431305E-2,4.512023926E-2
1.154199288E1,5.212484673E-2,5.994033813E-2,6.927585602E-2
1.155205788E1,3.231222183E-2,5.034136772E-2,6.925964355E-2
1.156212489E1,-3.191635758E-2,1.972961426E-2,3.353118896E-2
1.157219089E1,-7.230582833E-2,3.483200073E-2,1.161127090E-1
1.158225689E1,-9.617237002E-2,2.810525894E-2,1.754283905E-2
1.159232338E1,-6.651888788E-2,-1.497068405E-1,-1.335477829E-1
1.160238938E1,-1.953245699E-2,-2.827746868E-1,-6.674203873E-1
1.161245488E1,-5.324812606E-3,-3.402078152E-1,4.919662476E-1
1.162251960E1,-1.266454346E-2,-2.872684002E-1,3.206195831E-1
1.163258385E1,1.499258354E-2,-1.510248184E-1,-2.301092148E-1
1.164264796E1,5.515738204E-2,1.098752022E-2,-9.484672546E-2
1.165271216E1,3.555486351E-2,1.736690998E-1,1.181812286E-1
1.166277625E1,-3.762826696E-2,3.980159760E-1,-5.026149750E-2
1.167284017E1,-6.187807396E-2,4.183115959E-1,-3.752803802E-2
1.168290386E1,-6.876775622E-2,2.861614227E-1,9.032249451E-3
1.169296729E1,-8.467248827E-2,1.376583576E-1,6.110477448E-2
1.170307462E1,-8.730842918E-2,-2.041873932E-1,-6.080532074E-2
1.171317918E1,-9.562855214E-2,-3.687841892E-1,3.519058228E-2
1.172328130E1,-7.116192579E-2,-3.649144173E-1,1.611690521E-1
1.173338135E1,-2.147763595E-2,-2.400908470E-1,-3.079891205E-2
1.174347946E1,6.577803940E-2,-1.378939152E-1,1.878738403E-3
1.175357596E1,6.186130643E-2,-2.416896820E-2,5.354404449E-2
1.176367086E1,5.180311203E-2,7.749080658E-3,-2.902507782E-2
1.177376432E1,-8.038930595E-3,-7.162570953E-3,1.584339142E-1
1.178389188E1,-4.494399950E-2,-3.090739250E-2,3.500499725E-1
1.179401680E1,-5.308883637E-2,5.550241470E-2,-6.497192383E-2
1.180413916E1,-2.914966643E-2,1.217081547E-1,-1.691560745E-1
1.181425920E1,8.123740554E-4,1.823959351E-1,-8.419990540E-3
1.182437708E1,-8.029863238E-5,1.437265873E-1,2.680778503E-2
1.183449319E1,8.923601359E-3,4.516863823E-2,1.506080627E-1
1.184460750E1,3.516717628E-2,-5.182576180E-2,4.424571991E-2
1.185472013E1,6.369249523E-2,-1.040694714E-1,-4.803657532E-2
1.186483260E1,4.923358932E-2,-1.080257893E-1,-8.030605316E-2
1.187494490E1,5.082640797E-2,-5.847120285E-2,6.731891632E-2
1.188505710E1,1.389313489E-2,-5.859088898E-2,1.218070984E-1
1.189516910E1,2.262278274E-2,-3.294253349E-2,9.706783295E-2
1.190528106E1,4.657938331E-2,3.234910965E-2,-1.531400681E-1
1.191539300E1,4.214373603E-2,4.904460907E-2,-4.449558258E-2
1.192486888E1,3.282664344E-2,2.038216591E-2,-4.425048828E-4
1.193493389E1,-1.197009347E-2,2.968335152E-2,-1.217231750E-1
1.194533088E1,-3.756097332E-2,-1.981329918E-2,2.242774963E-1
1.195556189E1,-5.240267888E-2,2.908062935E-2,4.132928848E-1
1.196573722E1,-6.390822679E-2,1.849746704E-2,-1.143474579E-1
1.197588447E1,-2.919376269E-2,-1.680593491E-1,-5.112047195E-1
1.198601427E1,1.447086036E-2,-3.776378632E-1,4.120349884E-1
1.199613277E1,2.077474818E-2,-3.719666004E-1,5.690937042E-1
1.200624363E1,3.997072577E-3,-1.514065266E-1,-6.654548645E-2
1.201634838E1,8.957070857E-2,1.863420010E-1,-3.867607117E-1
1.202673688E1,9.511004388E-2,4.462428093E-1,-2.728099823E-1
1.203679988E1,1.738784462E-2,4.938957691E-1,-1.456193924E-1
1.204690789E1,-6.989622116E-2,4.425685406E-1,1.081504822E-1
1.205699488E1,-9.850122035E-2,2.509870529E-1,1.042642593E-1
1.206707355E1,-4.329962656E-2,-3.798866272E-2,1.802167892E-1
1.207714805E1,-2.443162724E-2,-2.481827736E-1,-1.150169373E-1
1.208722125E1,-4.527242482E-2,-3.045566082E-1,-1.864233017E-1
1.209729308E1,-2.210829780E-2,-2.886440754E-1,-1.034812927E-1
1.210736294E1,2.500876784E-3,-1.157376766E-1,-1.277389526E-1
1.211743194E1,-5.659632385E-3,-4.327583313E-2,-4.306144714E-1
1.212749983E1,7.769556344E-2,-1.509785652E-1,-3.458652496E-1
1.213756703E1,1.539034247E-1,-2.268586159E-1,-6.118774414E-3
1.214763348E1,9.982877970E-2,-2.823965549E-1,-2.141809464E-1
1.215769957E1,-2.815400809E-2,-2.916829586E-1,-2.073907852E-1
1.216776541E1,-1.282982826E-1,-2.740502357E-1,-2.563743591E-1
1.217783091E1,-1.162487715E-1,-1.949267387E-1,-5.331144333E-1
1.218793231E1,-1.011588946E-1,-5.779576302E-2,-6.099767685E-1
1.219803137E1,-5.075856298E-2,5.102515221E-2,-3.352184296E-1
1.220812832E1,-4.639467224E-2,6.386876106E-2,-1.647853851E-2
1.221822332E1,-8.666377515E-3,-1.115472317E-1,2.456579208E-1
1.222831668E1,1.725442708E-4,-2.123391628E-1,1.004753113E-1
1.223840863E1,-8.937387168E-2,-1.446247101E-1,-5.550384521E-3
1.224849920E1,-8.344375342E-2,-1.251840591E-1,1.372432709E-2
1.225858848E1,-3.490424901E-2,-3.444361687E-2,-1.209201813E-1
1.226871217E1,-4.145391285E-4,8.037304878E-2,-9.174537659E-2
1.227883330E1,2.428527921E-2,1.021833420E-1,-1.294536591E-1
1.228895330E1,1.433843374E-2,1.709918976E-1,-1.028604507E-1
1.229907110E1,-6.597159058E-2,1.229815483E-1,3.549003601E-1
1.230918692E1,-1.317176223E-1,9.609532356E-2,2.618322372E-1
1.231930077E1,-1.383213699E-1,4.628992081E-2,1.361112595E-1
1.232941274E1,-4.729505628E-2,1.379411221E-1,5.912961960E-1
1.233952290E1,1.608870924E-2,1.947531700E-1,1.193857193E-1
1.234963134E1,7.774710655E-2,8.917188644E-2,-7.168064117E-1
1.235973957E1,1.163102239E-1,-1.058592796E-1,-3.299055099E-1
1.236984774E1,1.455739737E-1,-2.052016258E-1,6.469707489E-1
1.237995580E1,1.279560775E-1,-1.403295994E-1,2.947111130E-1
1.239006354E1,1.337652504E-1,5.718398094E-2,8.872985840E-3
1.240017097E1,1.059472263E-1,3.202338219E-1,-9.758377075E-2
1.241027870E1,5.109462887E-2,3.694729805E-1,-3.436670303E-1
1.242038630E1,-6.110113114E-2,3.081791401E-1,-2.786455154E-1
1.243051144E1,-1.429699361E-1,1.402006149E-1,1.184082031E-2
1.244063647E1,-6.626056135E-2,-5.632710457E-2,1.635322571E-1
1.245076143E1,5.255487561E-2,-1.485309601E-1,1.807489395E-1
1.246088620E1,1.200721934E-1,-1.646695137E-1,8.610725403E-3
1.247101067E1,6.216865778E-2,-1.518015862E-1,-5.567073822E-2
1.248113493E1,2.010229230E-2,-9.497761726E-2,-9.565734863E-2
1.249124106E1,-5.149319768E-4,-2.151918411E-2,-1.332979202E-1
1.250134707E1,4.594703764E-2,-2.761173248E-2,-3.387508392E-1
1.251147980E1,6.114939600E-2,-1.457681656E-1,5.213832855E-2
1.252161250E1,2.454294264E-2,-2.158277035E-1,4.759502411E-2
1.253174590E1,4.638291895E-3,-2.097117901E-1,-5.288791656E-2
1.254187913E1,4.728347063E-3,-2.109315395E-1,-1.783227921E-1
1.255201220E1,3.184825927E-2,-1.345851421E-1,-1.989994049E-1
1.256214516E1,6.652206928E-2,-4.534983635E-2,-2.537631989E-2
1.257225073E1,4.841116816E-2,7.088184357E-4,2.521343231E-1
1.258235623E1,3.858029842E-3,3.828024864E-2,1.350498199E-1
1.259246056E1,-3.790661693E-3,3.383016586E-2,1.107978821E-1
1.260256493E1,3.717149794E-2,7.311272621E-2,-1.712131500E-2
1.261266913E1,3.436126560E-2,9.632205963E-2,-4.996013641E-2
1.262277319E1,-3.120057285E-2,8.047056198E-2,-1.698493958E-3
1.263287743E1,-7.956895977E-2,1.057660580E-1,2.279949188E-2
1.264298176E1,-6.570322067E-2,1.725912094E-1,9.312438965E-2
1.265308643E1,2.065207064E-2,3.478267193E-1,2.020244598E-1
1.266319119E1,3.857475519E-2,3.277285099E-1,4.458713531E-2
1.267331416E1,3.511205316E-2,1.064424515E-1,3.458213806E-2
1.268343726E1,-4.684742168E-2,5.981636047E-2,1.777544022E-1
1.269356059E1,-1.306671649E-1,-1.300327778E-1,-2.511177063E-1
1.270368409E1,-1.303802431E-1,-1.106874943E-1,1.487693787E-1
1.271380746E1,8.460879326E-3,4.013037682E-2,5.419464111E-1
1.272393096E1,7.138781250E-2,-5.475616455E-2,7.541179657E-2
1.273403712E1,4.892704636E-2,-2.317576408E-1,-6.012277603E-1
1.274414342E1,5.533040315E-2,-2.956588268E-1,2.954034805E-1
1.275538289E1,-5.623243377E-2,-2.425360680E-1,3.942937851E-1
1.276544588E1,-1.361040175E-1,-1.100051403E-1,1.451768875E-1
1.277551089E1,-1.051876694E-2,1.200504303E-1,-1.832647324E-1
1.278557438E1,-1.223865151E-2,3.537666798E-1,2.606105804E-2
1.279563639E1,-1.035723835E-1,5.177776814E-1,-4.005622864E-1
1.280569964E1,-2.581732869E-1,4.884259701E-1,-2.762756348E-1
1.281576284E1,-2.387300730E-1,2.887165546E-1,-3.866291046E-2
1.282582534E1,-2.419836819E-2,-1.919269562E-3,1.414995193E-1
1.283588691E1,1.371551454E-1,-2.158265114E-1,3.440952301E-2
1.284594866E1,1.686527431E-1,-4.071178436E-1,8.098697662E-2
1.285601032E1,1.350531280E-1,-4.377655983E-1,2.950191498E-2
1.286607182E1,9.687782079E-2,-3.041863441E-1,-1.779994965E-1
1.287613337E1,1.112938076E-1,-1.479902267E-1,-2.711153030E-1
1.288619470E1,8.495758474E-2,-7.033634186E-2,-9.696960449E-3
1.289625678E1,1.796451211E-2,2.542972565E-3,1.760807037E-1
1.290631878E1,-5.119162425E-2,-6.455659866E-2,1.708126068E-1
1.291641558E1,-7.392375171E-2,-1.209938526E-1,2.167043686E-1
1.292651014E1,-4.755187780E-2,-1.768760681E-1,-5.132770538E-2
1.293660284E1,8.081029356E-2,-9.524774551E-2,-1.298074722E-1
1.294669384E1,1.316037476E-1,1.005663872E-1,-6.298255920E-2
1.295678321E1,1.348753273E-1,2.028098106E-1,3.588008881E-2
1.296687131E1,9.586651623E-2,2.087054253E-1,5.309581757E-2
1.297695822E1,7.683737576E-2,1.532998085E-1,1.943874359E-2
1.298704399E1,7.184242457E-2,1.235373020E-1,-4.801464081E-2
1.299716403E1,4.901255667E-2,3.946065903E-2,-5.290126801E-2
1.300728170E1,6.161478162E-2,-2.140927315E-2,-4.513835907E-2
1.301739726E1,9.575656801E-2,-1.367807388E-2,-1.758766174E-2
1.302751083E1,1.109604165E-1,3.264355659E-2,-9.077072144E-3
1.303762242E1,9.484525770E-2,1.834726334E-2,-1.044750214E-2
1.304773232E1,2.664305270E-2,-1.626849174E-2,-3.290176392E-4
1.305784066E1,-5.293806642E-2,-5.819845200E-2,-4.054832458E-2
1.306794759E1,-1.557264328E-1,-8.767437935E-2,-1.404390335E-1
1.307805446E1,-2.024730146E-1,-8.825325966E-2,-1.612615585E-1
1.308816143E1,-1.486954689E-1,-1.423716545E-2,1.939582825E-1
1.309826849E1,-4.559603333E-2,5.906558037E-2,5.043859482E-1
1.310837542E1,-4.217858613E-2,-1.278884411E-1,-2.283668518E-1
1.311848229E1,7.318507135E-2,-3.642747402E-1,-4.413356781E-1
1.312858919E1,1.745772809E-1,-3.818132877E-1,4.375162125E-1
1.313869652E1,1.112864316E-1,-2.957525253E-1,2.570304871E-1
1.314880389E1,-3.586553037E-3,-7.396864891E-2,-2.056598663E-2
1.315892889E1,-7.509817183E-2,2.566769123E-1,-6.074428558E-2
1.316905396E1,-1.076509207E-1,5.043518543E-1,-1.451206207E-1
1.317917909E1,-1.856358945E-1,6.361446381E-1,-3.414125443E-1
1.318930445E1,-1.852758825E-1,5.590796471E-1,-5.473136902E-3
1.319942969E1,-8.031673729E-2,3.843975067E-1,1.080074310E-1
1.320955512E1,7.674220949E-2,2.235124111E-1,2.298784256E-1
1.321966322E1,1.216915101E-1,-1.671226025E-1,1.664857864E-1
1.322977135E1,9.164538980E-2,-4.226448536E-1,1.154937744E-1
1.323990642E1,9.252505749E-2,-3.763849735E-1,-2.840366364E-1
1.325004162E1,1.684478521E-1,-2.192666531E-1,-1.780805588E-1
1.326017699E1,1.838574857E-1,-1.212162971E-1,-9.095191956E-2
1.327031238E1,1.553472430E-1,-3.461909294E-2,1.831445694E-1
1.328044782E1,2.910514176E-2,-4.060983658E-2,1.271572113E-1
1.329058335E1,-6.461681426E-2,-1.270210743E-1,1.807146072E-1
1.330069198E1,-1.013915315E-1,-1.331536770E-1,5.328750610E-2
1.331080072E1,-3.762063384E-2,-1.043598652E-1,-1.018457413E-1
1.332090935E1,4.218703508E-2,3.473114967E-2,-1.745576859E-1
1.333101795E1,4.910890013E-2,1.798584461E-1,1.039505005E-2
1.334112652E1,3.701867908E-2,2.067837715E-1,8.103656769E-2
1.335123505E1,-2.744556963E-2,1.538047791E-1,9.864044189E-2
1.336134352E1,-1.038651988E-1,9.459829330E-2,6.777572632E-2
1.337145188E1,-8.989139646E-2,4.978752136E-2,1.777648926E-2
1.338156045E1,-4.977145419E-2,2.243137360E-2,-2.235984802E-2
1.339166901E1,-5.742891505E-2,-2.060413361E-3,-2.878761292E-2
1.340179528E1,-5.051500723E-2,2.490043640E-3,-1.574516296E-3
1.341192151E1,-1.698536426E-2,-1.435446739E-2,-7.819175720E-3
1.342204788E1,-7.053576410E-3,-1.732110977E-2,4.319477081E-2
1.343217448E1,-4.204832017E-2,-6.158423424E-2,-3.293037415E-2
1.344230108E1,-6.235456839E-2,-6.585001945E-2,-1.859617233E-1
1.345242768E1,-1.231567860E-1,-7.409691811E-2,1.138381958E-1
1.346253674E1,-1.626191437E-1,-9.301376343E-2,2.178459167E-1
1.347264588E1,-1.561904997E-1,-1.112246513E-2,2.142133713E-1
1.348405689E1,-8.504427969E-2,2.780008316E-2,1.938753128E-1
1.349412588E1,-4.842653871E-3,-1.197681427E-1,-7.065620422E-1
1.350419889E1,9.199146926E-2,-2.122101784E-1,-4.635105133E-1
1.351426839E1,1.858707219E-1,-1.856539249E-1,3.353395462E-1
1.352433738E1,1.727008224E-1,-1.602733135E-1,3.948736191E-1
1.353440564E1,1.555059254E-1,-4.578709602E-2,-2.382946014E-2
1.354447184E1,1.133855209E-1,1.913442612E-1,-5.688953400E-2
1.355453800E1,-7.132217288E-4,3.931360245E-1,-1.763601303E-1
1.356460400E1,-1.525513381E-1,4.585921764E-1,-4.001321793E-1
1.357467025E1,-2.036743462E-1,3.099627495E-1,-8.464431763E-2
1.358473625E1,-6.574453413E-2,1.058893204E-1,3.676414490E-2
1.359480215E1,1.177529618E-1,-1.006565094E-1,1.260452271E-1
1.360486833E1,2.144567072E-1,-2.339520454E-1,7.846927643E-2
1.361493492E1,2.004544586E-1,-2.735235691E-1,2.864646912E-2
1.362500176E1,1.596586406E-1,-1.879260540E-1,-1.717338562E-1
1.363506869E1,1.059759036E-1,-3.763508797E-2,-3.313827515E-1
1.364517236E1,6.126143783E-2,3.699302673E-2,-1.315050125E-1
1.365527354E1,2.818823606E-2,-7.774591446E-3,1.173658371E-1
1.366537242E1,-2.954977006E-2,-1.170790195E-1,7.993984222E-2
1.367546931E1,-6.467395276E-2,-2.524578571E-1,1.530170441E-2
1.368556431E1,-6.245787814E-2,-2.331380844E-1,-1.392698288E-1
1.369565761E1,-4.365608096E-3,-1.025333405E-1,-1.890125275E-1
1.370574942E1,1.475965232E-2,7.630991936E-2,-2.280683517E-1
1.371583997E1,1.090787351E-3,2.116224766E-1,5.550956726E-2
1.372708688E1,-4.371588677E-2,2.588341236E-1,2.746562958E-1
1.373714788E1,-6.733684987E-2,2.132968903E-1,1.387405396E-1
1.374721089E1,-6.684231013E-2,1.172509193E-1,1.022977829E-1
1.375727388E1,-4.487944394E-2,4.239559174E-2,1.638717651E-1
1.376733555E1,-5.204217881E-2,-2.818822861E-2,4.806613922E-2
1.377739655E1,-4.917078093E-2,-2.578735352E-2,2.751350403E-2
1.378745795E1,-5.076982081E-2,-2.382040024E-3,8.094978333E-2
1.379751978E1,1.060228050E-2,4.296064377E-3,7.214641571E-2
1.380758150E1,4.069791734E-2,5.080699921E-4,8.930873871E-2
1.381764337E1,8.748655766E-2,4.562687874E-2,5.562210083E-2
1.382770537E1,6.076294184E-2,3.717136383E-2,-1.125202179E-1
1.383776747E1,-7.829327881E-2,-5.921602249E-2,-1.367397308E-1
1.384782956E1,-1.148903668E-1,-1.033887863E-1,5.293560028E-2
1.385789206E1,-7.385572791E-2,-4.736924171E-2,2.099504471E-1
1.386795460E1,-5.133095756E-2,-6.478643417E-2,1.446266174E-1
1.387801717E1,-3.118246794E-3,-2.178387642E-1,-4.141702652E-1
1.388812237E1,8.998952806E-2,-3.200290203E-1,-3.220930099E-1
1.389822487E1,1.189018041E-1,-2.992913723E-1,5.217885971E-1
1.390832499E1,1.223978400E-2,-2.441473007E-1,1.785106659E-1
1.391842293E1,2.478146553E-2,-4.661107063E-2,-3.291263580E-1
1.392851893E1,5.845247954E-2,3.392748833E-1,-3.012380600E-1
1.393861328E1,2.760715038E-2,6.200656891E-1,-6.710948944E-1
1.394870600E1,-1.521942317E-1,6.469423771E-1,-8.532562256E-1
1.395879750E1,-2.534699440E-1,4.880580902E-1,-5.910959244E-1
1.396892289E1,-1.632799804E-1,1.830585003E-1,-1.531744003E-1
1.397904572E1,-4.920746386E-2,-9.505081177E-2,4.071207047E-1
1.398916624E1,1.300199330E-2,-2.837407589E-1,4.434671402E-1
1.399928455E1,5.259791017E-2,-2.707486153E-1,-1.791191101E-2
1.400940073E1,1.175522059E-1,-2.012989521E-1,-1.123580933E-1
1.401951488E1,1.256341338E-1,-1.576125622E-1,-4.133510590E-2
1.402962722E1,1.432646662E-1,-2.274425030E-1,2.304058075E-1
1.403973785E1,1.364062130E-1,-3.250427246E-1,4.345207214E-1
1.404984842E1,1.096458212E-1,-3.599224091E-1,6.282377243E-1
1.405995895E1,6.199000776E-2,-3.587136269E-1,3.459157944E-1
1.407006955E1,-8.965020627E-2,-7.142081261E-1,-3.143396378E-1
1.408018028E1,-4.537924752E-2,-5.542263985E-1,-1.134243011E-1
1.409029102E1,-1.117584109E-2,2.315208912E-1,1.152715683E-1
1.410040165E1,-6.988741457E-2,8.557062149E-1,2.993116379E-1
1.411051462E1,-4.010436535E-1,1.008319616E0,-1.281738281E-3
1.412062755E1,-4.798874259E-1,8.292338848E-1,-1.060934067E-1
1.413075795E1,-1.661680043E-1,5.801241398E-1,-1.680850983E-1
1.414088848E1,1.923002303E-1,1.857178211E-1,1.682376862E-2
1.415101912E1,3.741247058E-1,-9.304833412E-2,1.446170807E-1
1.416114965E1,3.510786593E-1,-1.188061237E-1,-1.417064667E-2
1.417128021E1,2.610348761E-1,-4.451751709E-3,2.974128723E-2
1.418141078E1,1.157191098E-1,3.872251511E-2,7.735824585E-2
1.419152011E1,5.973301828E-3,-7.122015953E-2,1.010684967E-1
1.420162968E1,-7.842048258E-2,-2.046856880E-1,4.490947723E-2
1.421304488E1,-3.936620057E-2,-2.793138027E-1,-9.310150146E-2
1.422310188E1,8.865185082E-3,-3.151934147E-1,-1.040477753E-1
1.423316288E1,1.944012940E-3,-3.428053856E-1,9.377384186E-2
1.424322589E1,-1.641447097E-2,-1.346023083E-1,3.112802505E-1
1.425328889E1,-2.706252411E-2,-2.728772163E-2,2.724609375E-1
1.426335114E1,-5.124324560E-2,-9.726214409E-2,-5.189342499E-1
1.427341254E1,6.363909692E-3,-2.842760086E-1,-5.663251877E-1
1.428347404E1,7.573291659E-2,-3.375189304E-1,5.816621780E-1
1.429353532E1,8.932583779E-2,-2.476971149E-1,3.250255585E-1
1.430359682E1,1.413390040E-1,5.290651321E-2,-2.832269669E-1
1.431365871E1,1.659148186E-1,3.202111721E-1,-9.550476074E-2
1.432372081E1,3.197528422E-2,5.358965397E-1,-4.176206589E-1
1.433378308E1,-1.606882513E-1,4.959685802E-1,-3.841085434E-1
1.434384550E1,-2.768528759E-1,3.455617428E-1,1.411085129E-1
1.435390796E1,-2.134482563E-1,3.267264366E-2,3.924951553E-1
1.436397031E1,-3.040510789E-2,-1.891634464E-1,2.396173477E-1
1.437406778E1,1.329741776E-1,-3.017156124E-1,-5.967521667E-2
1.438416322E1,1.934580356E-1,-3.922772408E-1,-1.207075119E-1
1.439425686E1,1.366200894E-1,-3.561580181E-1,-2.933206558E-1
1.440434892E1,2.706391364E-2,-1.696293354E-1,-1.835994720E-1
1.441443934E1,-4.786255211E-2,-5.586385727E-3,1.076860428E-1
1.442452834E1,-1.015504524E-1,4.347634315E-2,1.092491150E-1
1.443461605E1,-1.440887451E-1,8.788228035E-2,-3.997325897E-2
1.444470260E1,-1.057686955E-1,2.373337746E-2,1.743717194E-1
1.445482386E1,-7.465817034E-2,-9.533047676E-2,2.153577805E-1
1.446494286E1,-5.927135795E-2,-8.425092697E-2,-1.523971558E-1
1.447505994E1,-2.921804786E-3,6.732463837E-3,-1.510562897E-1
1.448517490E1,4.359696433E-2,8.387327194E-2,2.977752686E-2
1.449528786E1,3.548387438E-2,4.323697090E-2,1.348400116E-1
1.450539900E1,-6.025321782E-4,-1.618146896E-2,-4.072189331E-4
1.451550845E1,3.937121481E-3,-7.538485527E-2,-2.407646179E-2
1.452561642E1,2.366221324E-2,-1.034393311E-1,9.113883972E-2
1.453572445E1,-2.555236220E-3,-4.247140884E-2,3.286514282E-1
1.454583248E1,6.805919111E-3,7.529187202E-2,2.115325928E-1
1.455594048E1,2.210775390E-2,1.334350109E-1,-7.892227173E-2
1.456604855E1,3.849767521E-2,2.159302235E-1,4.295349121E-3
1.457615672E1,9.180058539E-2,1.510848999E-1,2.334308624E-2
1.458626508E1,9.597827494E-2,5.855989456E-2,3.940677643E-2
1.459637395E1,1.113774329E-1,-2.895474434E-2,4.235267639E-3
1.460648295E1,7.800601423E-2,-7.330012321E-2,-1.769475937E-1
1.461660961E1,1.563799679E-1,-1.040673256E-2,-2.208318710E-1
1.462673615E1,2.357921153E-1,2.870798111E-2,5.004692078E-2
1.463686268E1,2.030592859E-1,-8.986711502E-3,8.487319946E-2
1.464698928E1,5.455178395E-2,-2.007002831E-1,-7.518081665E-1
1.465711595E1,-2.573098242E-2,-3.207275867E-1,-9.763393402E-1
1.466724271E1,1.826666296E-3,-2.392275333E-1,2.474880219E-1
1.467735205E1,-7.829013467E-2,-1.441478729E-1,1.213312149E-1
1.468746138E1,-1.247618198E-1,-7.921290398E-2,-3.977851868E-1
1.469888188E1,-1.737540662E-1,3.569340706E-2,-5.551548004E-1
1.470894288E1,-1.179287136E-1,8.621072769E-2,-7.414350510E-1
1.471900688E1,-6.184764206E-2,9.608507156E-3,-5.101766586E-1
1.472907088E1,-6.171319634E-2,-9.899115562E-2,-5.663394928E-2
1.473913422E1,-1.919697970E-2,-2.552886009E-1,1.554899216E-1
1.474919747E1,1.116639972E-1,-2.665729523E-1,1.897048950E-2
1.475926087E1,2.190784514E-1,-1.803274155E-1,-1.359252930E-1
1.476932470E1,1.714915633E-1,-9.046053886E-2,1.560411453E-1
1.477938813E1,3.704009578E-2,-4.557228088E-2,1.441621780E-1
1.478945200E1,-1.693582535E-1,8.310937881E-2,2.188158035E-1
1.479951600E1,-3.043045998E-1,2.253580093E-1,2.035427094E-1
1.480957990E1,-3.396037221E-1,3.275926113E-1,1.311178207E-1
1.481964354E1,-2.720500827E-1,3.807575703E-1,5.176544189E-3
1.482970712E1,-1.324550509E-1,3.800325394E-1,-2.208137512E-2
1.483977066E1,2.959507331E-2,3.639416695E-1,1.551609039E-1
1.484983416E1,1.515927315E-1,2.973670959E-1,2.872304916E-1
1.485993236E1,1.870984733E-1,2.726619244E-1,8.983421326E-2
1.487002830E1,1.303267926E-1,1.669414043E-1,7.462882996E-2
1.488012242E1,9.577609599E-3,1.068973541E-2,-1.288700104E-2
1.489021480E1,-1.026923582E-1,-1.053066254E-1,2.380113602E-1
1.490030559E1,-1.790734231E-1,-1.470196247E-1,3.357315063E-1
1.491039509E1,-2.511921227E-1,-1.543600559E-1,2.030067444E-1
1.492048338E1,-2.689837515E-1,-1.170637608E-1,-6.650829315E-2
1.493057042E1,-2.176233232E-1,-5.169272423E-2,-3.123664856E-2
1.494182088E1,-1.473028362E-1,6.245613098E-3,2.406501770E-2
1.495188388E1,-9.236099571E-2,4.221034050E-2,1.917333603E-1
1.496196988E1,-6.651779264E-2,6.139922142E-2,1.261987686E-1
1.497204438E1,-5.908804387E-2,8.329725266E-2,-5.027580261E-2
1.498211472E1,-6.069035828E-2,9.385466576E-2,9.914779663E-2
1.499218372E1,-2.617292106E-2,1.058075428E-1,-1.902675629E-2
1.500225052E1,2.964004874E-2,1.113920212E-1,-5.179405212E-3
1.501231685E1,6.689220667E-2,7.778143883E-2,3.229179382E-1
1.502238199E1,1.663958654E-2,1.229217052E-1,1.035556793E-1
1.503244687E1,-4.263740778E-2,6.779289246E-2,5.379600525E-1
1.504251142E1,-1.738407314E-1,3.658485413E-2,-3.486461639E-1
1.505257582E1,-2.120026201E-1,5.539941788E-2,-2.785720825E-1
1.506264010E1,-3.131532371E-1,4.927635193E-2,3.732023239E-1
1.507270418E1,-3.493963182E-1,6.357526779E-2,1.749830246E-1
1.508276818E1,-2.440107912E-1,4.018473625E-2,3.898239136E-2
1.509283232E1,-9.362484515E-2,3.258323669E-2,3.910617828E-1
1.510293139E1,6.442750245E-2,1.748001575E-1,4.695701599E-2
1.511302845E1,1.783573329E-1,3.263370991E-1,2.688121796E-2
1.512312356E1,2.204944193E-1,4.102067947E-1,2.971706390E-1
1.513321684E1,2.287184149E-1,4.985044003E-1,8.610343933E-2
1.514330858E1,1.947349310E-1,4.915361404E-1,2.143239975E-1
1.515339878E1,1.095768139E-1,3.161187172E-1,3.853406906E-1
1.516348778E1,-3.695606813E-2,1.265008450E-1,1.901245117E-1
1.517357582E1,-6.973744929E-2,-1.194453239E-2,2.379407883E-1
1.518479288E1,-2.157722414E-2,-3.261661530E-2,1.967048645E-1
1.519486489E1,1.178038120E-1,-1.255273819E-3,1.282510757E-1
1.520492889E1,2.330773771E-1,4.428148270E-2,2.640962601E-1
1.521499388E1,2.433351874E-1,8.970522881E-2,1.389322281E-1
1.522505889E1,1.213910952E-1,7.816696167E-2,1.375761032E-1
1.523512489E1,-1.954148151E-2,4.467439651E-2,-3.630352020E-2
1.524519029E1,-1.613238752E-1,3.030347824E-2,-1.949424744E-1
1.525525528E1,-2.051112205E-1,-4.611182213E-2,-3.332710266E-2
1.526531986E1,-1.778275222E-1,-1.205492020E-2,1.769161224E-2
1.527538423E1,-2.933653258E-2,7.292962074E-2,-8.665084839E-2
1.528544879E1,1.643762589E-1,1.601669788E-1,-2.732086182E-2
1.529551349E1,2.537121773E-1,2.262299061E-1,-4.590892792E-2
1.530557776E1,1.873183399E-1,1.757233143E-1,7.471370697E-2
1.531564192E1,1.207881272E-1,6.882548332E-2,6.082248688E-2
1.532570631E1,1.075765118E-2,-5.473375320E-2,-8.797550201E-2
1.533577052E1,-1.706475019E-2,-1.454045773E-1,-1.220712662E-1
1.534587072E1,4.619713873E-2,-1.032912731E-1,-9.107208252E-2
1.535596835E1,5.897014588E-2,-3.044581413E-2,-9.277343750E-2
1.536606394E1,8.822542429E-2,4.652309418E-2,1.001806259E-1
1.537615760E1,1.504175738E-2,1.080853939E-1,7.731437683E-2
1.538624950E1,-1.239354350E-2,8.089280128E-2,4.630184174E-2
1.539633980E1,-7.602631301E-2,2.543973923E-2,-2.374649048E-2
1.540642851E1,-1.326258630E-1,-2.081775665E-2,-2.927112579E-2
1.541651578E1,-1.623935401E-1,-2.801871300E-2,8.047103882E-2
1.542663730E1,-1.243410408E-1,-1.760749817E-1,2.995729446E-1
1.543675626E1,-1.465867832E-2,-3.300833702E-1,-2.003479004E-2
1.544687286E1,7.836955786E-2,-4.902596474E-1,-4.796123505E-1
1.545698724E1,1.958819926E-1,-5.134267807E-1,1.561841965E-1
1.546709972E1,2.464007884E-1,-3.555908203E-1,3.171281815E-1
1.547721033E1,3.458934128E-1,-1.084504128E-1,-3.198938370E-1
1.548731912E1,4.093416333E-1,1.198477745E-1,-1.882934570E-1
1.549742616E1,3.258609176E-1,3.232595921E-1,-5.129623413E-2
1.550753302E1,1.948001683E-1,3.940777779E-1,-2.033624649E-1
1.551763979E1,3.242784739E-2,3.365197182E-1,-1.371479034E-1
1.552774656E1,-8.187325299E-2,1.807432175E-1,7.511997223E-2
1.553785309E1,-1.300781518E-1,-4.369711876E-2,2.340402603E-1
1.554795959E1,-6.856591254E-2,-2.379307747E-1,1.569337845E-1
1.555806602E1,-6.682002544E-2,-3.362140656E-1,-1.365957260E-1
1.556817322E1,-2.082461864E-2,-3.412997723E-1,-2.314910889E-1
1.557828036E1,4.511851072E-2,-3.157391548E-1,-1.627616882E-1
1.558840546E1,1.533701867E-1,-2.320592403E-1,2.304792404E-1
1.559853036E1,2.039086819E-1,-1.525721550E-1,2.433004379E-1
1.560865526E1,2.004113197E-1,-1.404950619E-1,5.862712860E-2
1.561878002E1,1.081781611E-1,-1.466815472E-1,2.314853668E-2
1.562890452E1,5.542177707E-2,-9.816050529E-2,-1.284046173E-1
1.563902892E1,-6.159125641E-2,6.180214882E-2,-2.612619400E-1
1.564913515E1,-1.216482818E-1,2.019128799E-1,-1.228809357E-1
1.565924149E1,-1.403319091E-1,2.654867172E-1,-2.416515350E-2
1.566937452E1,-1.472505927E-1,2.757596970E-1,1.255769730E-1
1.567950739E1,-1.086200625E-1,2.269957066E-1,1.583480835E-1
1.568964039E1,-7.667192072E-2,9.137082100E-2,1.118240356E-1
1.569977335E1,-3.686614335E-3,-1.202106476E-3,4.612636566E-2
1.570990635E1,2.647964656E-2,-5.970478058E-2,-3.370475769E-2
1.572003935E1,4.182780534E-2,-1.081769466E-1,-8.077621460E-4
1.573014512E1,3.659610450E-2,-1.109955311E-1,3.696250916E-2
1.574025088E1,-4.600554705E-3,-1.099944115E-1,-2.144527435E-2
1.575035645E1,-6.245539337E-2,-7.941603661E-2,-1.116333008E-1
1.576046195E1,-1.180353910E-1,-8.614516258E-2,-1.066484451E-1
1.577056735E1,-1.420143098E-1,-6.226038933E-2,4.655551910E-2
1.578067258E1,-1.653396487E-1,-1.531577110E-2,1.155834198E-1
1.579077795E1,-1.516087651E-1,1.598072052E-2,1.002550125E-1
1.580088348E1,-7.301321626E-2,1.166107655E-1,1.543149948E-1
1.581098922E1,-1.533084363E-2,1.732835770E-1,-8.065319061E-2
1.582109488E1,-1.263707131E-2,5.352282524E-2,-5.988416672E-1
1.583121815E1,-2.614789456E-2,-2.871608734E-1,-1.017847061E-1
1.584134138E1,-3.169610351E-2,-4.290664196E-1,5.212306976E-1
1.585146458E1,-9.773340821E-2,-2.650320530E-1,3.190851212E-1
1.586158778E1,-8.404088020E-2,6.570553780E-2,-2.726736069E-1
1.587171015E1,8.157715201E-2,4.066696167E-1,-2.890529633E-1
1.588183245E1,1.739847362E-1,5.930976868E-1,-1.100187302E-1
1.589193651E1,1.231133193E-1,5.731694698E-1,-1.226863861E-1
1.590204058E1,7.651673257E-2,3.732323647E-1,-2.162075043E-2
1.591214478E1,3.787607700E-2,9.322476387E-2,-1.435852051E-2
1.592224911E1,-2.677585185E-2,-1.884911060E-1,9.617233276E-2
1.593235471E1,-1.604251862E-1,-4.382305145E-1,3.470897675E-2
1.594246051E1,-2.833133936E-1,-5.851633549E-1,8.094596863E-2
1.595256638E1,-3.180723786E-1,-6.174664497E-1,8.158493042E-2
1.596267218E1,-1.955953836E-1,-5.579404831E-1,-2.119617462E-1
1.597275118E1,3.856730461E-2,-4.763977528E-1,1.133089066E-1
1.598283021E1,3.311729431E-1,-3.335196972E-1,3.793048859E-1
1.599290911E1,5.121384263E-1,-1.141555309E-1,3.305835724E-1
1.600298814E1,4.855040908E-1,8.119225502E-2,-8.648490906E-2
1.601306728E1,2.742084265E-1,2.256586552E-1,-1.719923019E-1
1.602314658E1,-6.396126747E-2,3.815498352E-1,-1.140432358E-1
1.603322594E1,-3.766361475E-1,3.768966198E-1,-5.374240875E-2
1.604330531E1,-2.634397745E-1,3.593661785E-1,-4.309444427E-1
1.605338507E1,1.172831655E-2,3.895471096E-1,-2.507638931E-1
1.606346497E1,2.853802741E-1,4.405813217E-1,2.160434723E-1
1.607356531E1,3.960974813E-1,3.524265289E-1,4.168996811E-1
1.608366584E1,2.733004689E-1,2.205572128E-1,2.419891357E-1
1.609376644E1,1.635111868E-1,1.326837540E-1,-1.592159271E-2
1.610386721E1,6.346004456E-2,1.034498215E-2,-3.993892670E-2
1.611396787E1,-4.964216799E-2,-9.334111214E-2,7.670688629E-2
1.612406860E1,-1.584317088E-1,-1.987872124E-1,1.433210373E-1
1.613415167E1,-2.093052268E-1,-2.007548809E-1,8.461093903E-2
1.614423470E1,-1.630111039E-1,-1.476807594E-1,-3.873825073E-3
1.615546989E1,-2.304422855E-2,-6.644582748E-2,-1.380882263E-1
1.616553188E1,6.956282258E-2,-3.872871399E-2,-1.854572296E-1
1.617559789E1,7.413897663E-2,-1.000885963E-1,-2.176504135E-1
1.618566238E1,-8.695200086E-3,-2.203657627E-1,2.318067551E-1
1.619572805E1,-9.387221187E-2,-2.808976173E-1,1.257896423E-1
1.620579380E1,-1.898946464E-1,-3.720512390E-1,-1.219883919E0
1.621585860E1,-1.962685585E-1,-5.640199184E-1,-9.687709808E-2
1.622592377E1,-1.344161332E-1,-4.728701115E-1,6.098623276E-1
1.623598877E1,-7.769965380E-2,-3.308987617E-2,-1.298618317E-1
1.624605414E1,2.111830562E-2,4.152674675E-1,-8.738079071E-1
1.625611959E1,1.419837773E-1,7.123789787E-1,-7.075424194E-1
1.626618539E1,-3.435604274E-3,6.495876312E-1,-2.536363602E-1
1.627625148E1,-2.675115168E-1,3.180174828E-1,2.489480972E-1
1.628631773E1,-4.547037184E-1,-1.614191532E-1,3.020257950E-1
1.629638411E1,-4.990483820E-1,-5.290572643E-1,1.218862534E-1
1.630645047E1,-2.974173129E-1,-6.128361225E-1,-6.247901917E-2
1.631655060E1,-1.260382682E-2,-3.624284267E-1,-2.346315384E-1
1.632664848E1,1.049802750E-1,-5.780982971E-2,-2.997331619E-1
1.633674448E1,1.113616526E-1,1.209063530E-1,-3.103380203E-1
1.634683898E1,9.602504224E-2,1.430037022E-1,-2.721033096E-1
1.635693208E1,6.291855872E-2,-9.728431702E-3,-2.971639633E-1
1.636702363E1,6.852555275E-2,-2.100522518E-1,1.064643860E-1
1.637711387E1,3.965411335E-2,-2.695181370E-1,2.236433029E-1
1.638720287E1,2.872402966E-2,-2.065608501E-1,1.590147018E-1
1.639846288E1,3.737038374E-2,-6.880950928E-2,1.439180374E-1
1.640852688E1,4.688114673E-2,9.546470642E-2,9.194946289E-2
1.641858988E1,1.097951680E-1,2.331228256E-1,-1.479558945E-1
1.642865488E1,1.233212203E-1,3.053982258E-1,-2.517166138E-1
1.643871955E1,1.142292470E-1,2.843935490E-1,-1.029958725E-1
1.644878355E1,9.458101541E-2,1.853528023E-1,1.836700439E-1
1.645884755E1,6.355492026E-2,8.494520187E-2,2.169961929E-1
1.646891088E1,1.592595130E-2,6.178140640E-3,6.257629395E-2
1.647897388E1,7.061935961E-3,-7.965683937E-2,2.958297729E-3
1.648903726E1,4.474870861E-3,-8.454227448E-2,-1.084690094E-1
1.649910081E1,3.758716583E-2,-5.557656288E-2,-5.349636078E-2
1.650916501E1,4.658120871E-2,2.622842789E-3,6.156349182E-2
1.651922947E1,8.777673542E-2,3.206658363E-2,1.324615479E-1
1.652929438E1,1.241460890E-1,4.839134216E-2,1.323432922E-1
1.653936008E1,1.036190242E-1,2.978467941E-2,-4.870414734E-3
1.654942586E1,7.708536088E-2,1.478266716E-2,-2.709388733E-3
1.655952706E1,4.387010634E-2,-4.619002342E-2,6.971263885E-2
1.656962600E1,4.129485786E-2,1.563310623E-3,3.556575775E-1
1.657972306E1,4.055282474E-2,5.636453629E-2,3.159484863E-1
1.658981856E1,3.432296216E-2,8.046627045E-4,-3.532724380E-1
1.659991234E1,2.007447183E-2,-1.468460560E-1,-6.779394150E-1
1.661000490E1,3.196299076E-5,-2.052385807E-1,1.294803619E-2
1.662009618E1,-4.482445121E-2,-1.796226501E-1,3.039083481E-1
1.663018623E1,-4.188592732E-2,-4.133582115E-2,1.088762283E-1
1.664031075E1,1.105078161E-1,2.221741676E-1,8.767127991E-3
1.665043266E1,1.576513797E-1,3.975176811E-1,-7.412910461E-3
1.666055358E1,6.093086302E-2,4.286077023E-1,-1.821327209E-1
1.667067220E1,-5.165244639E-2,3.450150490E-1,-8.991622925E-2
1.668078872E1,-1.017904133E-1,1.784198284E-1,2.185440063E-2
1.669090343E1,-5.607457459E-2,-6.458044052E-3,8.987045288E-2
1.670101632E1,1.915179193E-2,-1.314315796E-1,-2.031707764E-2
1.671112739E1,7.372863591E-2,-1.855726242E-1,-8.067607880E-2
1.672123829E1,7.125759125E-2,-1.882688999E-1,1.269149780E-2
1.673134899E1,5.737207830E-2,-1.320083141E-1,-3.216457367E-2
1.674145949E1,3.947632015E-2,-8.754253387E-2,3.795623779E-2
1.675156992E1,3.456841409E-2,-7.223200798E-2,2.348270416E-1
1.676168026E1,3.273817897E-2,-3.318572044E-2,3.095521927E-1
1.677179066E1,8.749437332E-2,-1.399135590E-2,9.184551239E-2
1.678190109E1,1.018790305E-1,-3.749132156E-3,-1.411437988E-2
1.679201129E1,9.059575200E-2,3.356671333E-2,8.995437622E-2
1.680213929E1,1.245695651E-1,9.867620468E-2,7.152366638E-2
1.681226682E1,1.627383530E-1,1.654098034E-1,-1.672077179E-2
1.682239419E1,1.156606376E-1,1.657915115E-1,-1.070880890E-1
1.683252116E1,7.382938266E-2,1.319301128E-1,-2.135028839E-1
1.684264756E1,2.852025628E-2,1.000802517E-1,-8.685207367E-2
1.685277366E1,2.067419887E-2,6.461596489E-2,1.072950363E-1
1.686288182E1,-1.711526513E-2,4.999136925E-2,1.598386765E-1
1.687298979E1,-7.680886984E-2,3.813648224E-2,7.744693756E-2
1.688431788E1,-1.253535002E-1,2.547550201E-2,-3.399848938E-2
1.689437589E1,-8.475479484E-2,-9.418487549E-3,7.801818848E-2
1.690443488E1,-1.769840717E-2,-1.950716972E-2,1.999807358E-1
1.691449338E1,7.742071152E-2,-1.989841461E-3,1.609907150E-1
1.692455105E1,1.417692602E-1,3.034472466E-2,4.685211182E-2
1.693460830E1,1.531218886E-1,5.251979828E-2,-8.196640015E-2
1.694466490E1,5.492326617E-2,3.240871429E-2,-3.328227997E-2
1.695472140E1,-3.083682060E-2,-1.007437706E-2,2.771091461E-1
1.696477754E1,-1.174212545E-1,-6.183791161E-2,3.099269867E-1
1.697483454E1,-1.754040420E-1,-1.275126934E-1,-1.366519928E-1
1.698489210E1,-1.823433638E-1,-1.631321907E-1,-4.813423157E-1
1.699495020E1,-7.017275691E-2,-1.042220592E-1,-3.039455414E-2
1.700500847E1,-2.487987280E-2,5.580186844E-2,4.454736710E-1
1.701506664E1,2.354845405E-2,1.818599701E-1,4.819297791E-2
1.702512540E1,1.281242371E-1,3.244032860E-1,-1.085834503E-1
1.703518419E1,1.861366630E-1,4.281308651E-1,2.442827225E-1
1.704528419E1,1.123197377E-1,4.623892307E-1,2.361965179E-2
1.705538144E1,-2.461177111E-2,3.737742901E-1,8.618640900E-2
1.706547632E1,-1.074455827E-1,2.387032509E-1,2.164192200E-1
1.707556910E1,-1.219448745E-1,1.126005650E-1,1.668701172E-1
1.708566005E1,-3.241154552E-2,-4.560518265E-2,1.877098083E-1
1.709574905E1,4.727387428E-2,-1.380720139E-1,2.113418579E-1
1.710583647E1,4.641085863E-2,-1.826615334E-1,9.229087830E-2
1.711592270E1,2.630168200E-2,-1.317226887E-1,-1.431741714E-1
1.712604344E1,-3.452181816E-3,-1.032550335E-1,-3.804874420E-2
1.713616152E1,-2.422328293E-2,-4.602313042E-2,7.289123535E-2
1.714627748E1,-2.968613803E-2,8.389711380E-3,1.104040146E-1
1.715639129E1,-2.256409824E-2,3.463816643E-2,6.881713867E-3
1.716650310E1,-5.124914646E-2,4.781651497E-2,-8.991527557E-2
1.717661307E1,-7.176004350E-2,2.841925621E-2,4.256916046E-2
1.718672134E1,-7.931247354E-3,7.057332993E-2,-2.629852295E-2
1.719682811E1,8.853131533E-2,1.497883797E-1,4.892444611E-2
1.720693491E1,1.214942336E-1,1.306262016E-1,1.896734238E-1
1.721704181E1,9.139196575E-2,9.285402298E-2,8.407306671E-2
1.722714891E1,4.427306354E-2,4.953384399E-2,6.914615631E-2
1.723725611E1,1.928502321E-2,2.063488960E-2,2.310848236E-2
1.724736338E1,-6.192922592E-3,-1.230525970E-2,3.735542297E-3
1.725747081E1,-6.365329027E-3,3.255534172E-2,-1.510715485E-2
1.726757874E1,2.514198422E-3,3.296041489E-2,-3.349304199E-2
1.727768674E1,-2.855890989E-2,7.256317139E-2,-4.672527313E-2
1.728781247E1,-4.042732716E-2,6.974458694E-3,-6.706523895E-2
1.729793814E1,3.818084300E-2,-4.305791855E-2,8.209323883E-2
1.730806377E1,8.849105239E-2,-5.678653717E-2,3.167629242E-2
1.731818947E1,1.230020523E-1,-4.368972778E-2,-1.751956940E-1
1.732831494E1,8.892835677E-2,6.012201309E-3,-1.040592194E-1
1.733844040E1,1.987399161E-2,3.975415230E-2,3.228206635E-1
1.734854527E1,-2.787369490E-2,9.927177429E-2,3.555135727E-1
1.735865037E1,-4.513131082E-2,4.858469963E-2,7.483863831E-2
1.736878310E1,-2.916261554E-2,-1.641128063E-1,-2.934522629E-1
1.737891590E1,2.347414196E-2,-3.650596142E-1,-2.007455826E-1
1.738904900E1,-2.394270897E-2,-2.749404907E-1,1.666584015E-1
1.739918254E1,-4.005217552E-2,-4.065203667E-2,-2.014636993E-2
1.740931627E1,4.135012627E-3,2.901601791E-1,-3.144807816E-1
1.741945010E1,3.044009209E-3,5.083591938E-1,-4.592895508E-3
1.742955657E1,-9.607201815E-2,5.572736263E-1,-9.361267090E-3
1.743966310E1,-1.745846272E-1,3.606209755E-1,-4.238700867E-2
1.744976944E1,-1.578224897E-1,6.103801727E-2,1.305150986E-1
1.745987580E1,-4.909768701E-2,-2.294583321E-1,2.577009201E-1
1.746998217E1,3.781725466E-2,-4.122312069E-1,9.655189514E-2
1.748008853E1,5.524288118E-2,-4.607124329E-1,-9.666061401E-2
1.749019490E1,5.078971386E-3,-3.968565464E-1,-6.488800049E-2
1.750030116E1,-3.400897980E-2,-2.638187408E-1,3.486919403E-2
1.751040763E1,-4.705189168E-2,-1.397094727E-1,8.022308350E-3
1.752051410E1,-1.664762199E-2,-1.923513412E-2,-1.630182266E-1
1.753063816E1,4.547560215E-2,-9.664297104E-3,-1.763877869E-1
1.754076253E1,9.925219417E-2,-3.536629677E-2,-3.148174286E-2
1.755088720E1,4.678009450E-2,-8.412599564E-2,7.787609100E-2
1.756101173E1,2.075135708E-4,-6.484389305E-2,7.172870636E-2
1.757113586E1,-5.811427534E-2,4.652976990E-3,-1.150159836E-1
1.758125973E1,-2.071167529E-2,1.339097023E-1,-2.491273880E-1
1.759136579E1,1.986476779E-2,1.853876114E-1,-1.039457321E-1
1.760147179E1,6.302519143E-2,1.589877605E-1,1.481227875E-1
1.761160516E1,6.625130773E-2,4.723429680E-2,2.616891861E-1
1.762173849E1,2.686046064E-2,-7.698059082E-2,6.514072418E-2
1.763187202E1,-3.679901361E-3,-1.730978489E-1,-6.568717957E-2
1.764200549E1,-1.107551157E-2,-1.623561382E-1,-1.274576187E-1
1.765213896E1,-4.681587219E-3,-9.508967400E-2,-9.520244598E-2
1.766227232E1,-1.729886234E-2,1.025509834E-2,-1.649456024E-1
1.767237799E1,-3.480699658E-2,6.834626198E-2,-2.296171188E-1
1.768248352E1,-2.574822307E-2,9.537720680E-2,-1.314525604E-1
1.769258869E1,-7.505916059E-3,4.816031456E-2,-5.484008789E-2
1.770269345E1,-3.721796721E-2,-2.100086212E-2,-1.412029266E-1
1.771279809E1,-7.603037357E-2,-8.271002769E-2,-2.106895447E-1
1.772290239E1,-6.119586155E-2,-1.332039833E-1,1.587142944E-1
1.773300659E1,-9.553499520E-3,-8.564114571E-2,5.315608978E-1
1.774311075E1,2.072922885E-2,-7.927465439E-2,7.230377197E-2
1.775321545E1,4.112768918E-2,-1.992659569E-1,-5.370683670E-1
1.776331999E1,4.615537822E-2,-4.053854942E-1,3.981237411E-1
1.777344195E1,-2.367749065E-2,-2.836613655E-1,6.055440903E-1
1.778356388E1,-3.767558187E-2,7.221031189E-2,-3.243350983E-2
1.779368575E1,1.514843106E-2,4.439578056E-1,-2.785148621E-1
1.780380772E1,2.731696516E-2,6.690266132E-1,-6.443023682E-2
1.781392945E1,-8.765800297E-2,6.177699566E-1,-1.727867126E-2
1.782405115E1,-1.631364077E-1,3.544640541E-1,6.892204285E-2
1.783415528E1,-1.329394281E-1,1.174712181E-2,2.352819443E-1
1.784425905E1,-4.082534462E-2,-2.643663883E-1,2.314653397E-1
1.785563689E1,4.378975183E-2,-4.078245163E-1,-8.315849304E-2
1.786569488E1,3.202043474E-2,-3.872458935E-1,-2.799139023E-1
1.787575688E1,-2.073229104E-2,-2.980496883E-1,-1.096553802E-1
1.788581838E1,-5.524199456E-2,-1.428124905E-1,-1.537990570E-2
1.789587938E1,-7.650151849E-3,-1.256680489E-2,-4.607677460E-2
1.790593989E1,6.727954000E-2,-1.284837723E-3,-2.666559219E-1
1.791600108E1,1.570818722E-1,-7.912278175E-2,-1.882038116E-1
1.792606275E1,2.298722267E-1,-1.701605320E-1,9.666919708E-2
1.793612404E1,1.948394179E-1,-2.248439789E-1,1.207695007E-1
1.794618479E1,7.378318161E-2,-1.813523769E-1,6.962203979E-2
1.795624490E1,-4.925875366E-2,-4.803586006E-2,-1.722106934E-1
1.796630440E1,-9.877711535E-2,1.283042431E-1,-2.345294952E-1
1.797636340E1,-8.503306657E-2,2.354817390E-1,-1.232957840E-1
1.798642198E1,-6.962430477E-2,2.227287292E-1,4.157543182E-2
1.799648106E1,-2.711841464E-2,1.719064713E-1,1.740169525E-2
1.800653963E1,4.803277552E-3,4.995584488E-2,-1.894979477E-1
1.801663956E1,2.221684158E-2,-8.271026611E-2,-4.016819000E-1
1.802673687E1,3.854611516E-2,-1.705892086E-1,-3.617181778E-1
1.803683205E1,3.548488021E-3,-1.923153400E-1,-1.237001419E-1
1.804692510E1,8.642263710E-3,-1.444246769E-1,2.710895538E-1
1.805701642E1,-2.201119065E-2,-5.943894386E-2,2.559347153E-1
1.806710637E1,-6.558116525E-2,2.542996407E-2,3.509140015E-2
1.807719508E1,-1.125098318E-1,8.652496338E-2,-9.922027588E-2
1.808728276E1,-1.185080856E-1,1.085662842E-1,-1.476659775E-1
1.809859888E1,-1.160756424E-1,7.659053802E-2,-2.975330353E-1
1.810865888E1,-7.334573567E-2,-2.877736092E-2,2.567863464E-2
1.811871888E1,2.064512670E-2,-1.005187035E-1,4.002857208E-1
1.812877889E1,3.063713014E-2,-1.577043533E-1,-1.909656525E-1
1.813883889E1,1.102122664E-2,-3.897266388E-1,-8.021774292E-1
1.814889938E1,1.391860098E-2,-4.893584251E-1,3.610849380E-1
1.815896038E1,2.042099833E-3,-2.860188484E-1,5.229368210E-1
1.816902138E1,8.191619813E-2,1.124861240E-1,-6.513690948E-2
1.817908196E1,2.435353249E-1,5.499882698E-1,-2.603712082E-1
1.818914283E1,2.663612962E-1,7.273464203E-1,-1.813373566E-1
1.819920416E1,1.064351201E-1,6.016395092E-1,-2.167415619E-1
1.820926566E1,-1.508456320E-1,1.437973976E-1,-7.570552826E-2
1.821932730E1,-1.958679557E-1,-2.302465439E-1,5.815887451E-2
1.822938872E1,-8.302658796E-2,-4.617629051E-1,9.681510925E-2
1.823945049E1,4.687580466E-2,-4.557490349E-1,4.470634460E-2
1.824951248E1,8.771534264E-2,-3.105919361E-1,-3.121566772E-2
1.825960882E1,3.033179045E-2,-7.173633575E-2,-2.003660202E-1
1.826970276E1,-3.644131869E-2,3.736400604E-2,-1.777553558E-2
1.827979464E1,-3.737378865E-2,5.725026131E-2,4.963874817E-2
1.828988491E1,7.764905691E-3,3.092050552E-3,-1.616525650E-1
1.829997354E1,5.830435455E-2,-7.670259476E-2,-1.151208878E-1
1.831006090E1,1.025620848E-1,-1.433315277E-1,-4.174518585E-2
1.832014713E1,6.407508254E-2,-9.038519859E-2,6.262779236E-3
1.833023227E1,-3.926855326E-2,-1.770067215E-2,1.790704727E-1
1.834149789E1,-1.228914857E-1,8.239436150E-2,1.837425232E-1
1.835156388E1,-1.053804383E-1,1.780967712E-1,1.061306000E-1
1.836163188E1,1.678426564E-2,2.160186768E-1,6.186962128E-2
1.837169888E1,7.026049495E-2,1.734776497E-1,1.560783386E-2
1.838176588E1,8.680273592E-2,1.629447937E-2,-1.379871368E-2
1.839183238E1,9.941872954E-2,-5.210018158E-2,-2.397823334E-2
1.840189858E1,5.387216806E-2,-8.213949203E-2,-7.243061066E-2
1.841196425E1,-7.011950016E-3,-1.047382355E-1,-5.610847473E-2
1.842202939E1,-4.744651914E-2,-7.390642166E-2,7.548809052E-2
1.843209464E1,-1.050227880E-1,-1.868534088E-2,1.306715012E-1
1.844215986E1,-7.825140655E-2,4.753828049E-2,1.159925461E-1
1.845222527E1,-1.236523688E-2,8.881974220E-2,5.297946930E-2
1.846229063E1,4.220063984E-2,6.243348122E-2,-2.708148956E-2
1.847235604E1,9.740534425E-2,1.010053158E-1,-8.068180084E-2
1.848242197E1,7.957893610E-2,8.140063286E-2,-1.862487793E-1
1.849248775E1,-7.822439075E-3,4.875493050E-2,-3.266620636E-2
1.850259515E1,-5.208715796E-2,2.263927460E-2,2.893161774E-1
1.851269984E1,-9.652252495E-2,-6.060767174E-2,1.890277863E-1
1.852280231E1,-9.656733274E-2,-1.777694225E-1,-3.527183533E-1
1.853290270E1,-4.897680879E-2,-2.677054405E-1,-4.723615646E-1
1.854300107E1,2.182976902E-2,-2.452056408E-1,4.945182800E-2
1.855309772E1,2.110882103E-2,-7.789754868E-2,4.086313248E-1
1.856319281E1,7.251432538E-2,1.598582268E-1,-7.802581787E-2
1.857328645E1,1.683866233E-1,3.850469589E-1,-1.519126892E-1
1.858341462E1,1.293974519E-1,4.774165154E-1,-1.460266113E-2
1.859354008E1,-7.233971357E-2,3.621022701E-1,-2.566242218E-1
1.860366384E1,-2.367573678E-1,1.653633118E-1,-1.647586823E-1
1.861378530E1,-2.310444415E-1,-4.380321503E-2,9.558773041E-2
1.862390448E1,-7.962012291E-2,-2.178535461E-1,1.616706848E-1
1.863402159E1,6.073217094E-2,-2.554209232E-1,2.320194244E-2
1.864413680E1,1.215739399E-1,-2.272431850E-1,-3.685855865E-2
1.865425020E1,3.224745393E-2,-1.410894394E-1,-1.038951874E-1
1.866436326E1,-5.325691402E-2,-3.449583054E-2,-1.966905594E-1
1.867447620E1,-1.039653495E-1,1.984143257E-2,-1.336545944E-1
1.868458900E1,-6.274232268E-2,-1.141643524E-2,8.681297302E-3
1.869470170E1,-1.298879087E-2,-3.724479675E-2,1.057767868E-1
1.870481440E1,4.955580831E-2,-7.565426826E-2,4.696369171E-2
1.871492716E1,5.793677270E-2,-6.606292725E-2,1.571655273E-3
1.872504023E1,1.876592636E-2,3.769874573E-3,-2.308654785E-2
1.873515319E1,4.720476270E-2,1.112771034E-1,-1.269731522E-1
1.874528356E1,6.665565073E-2,2.109069824E-1,-1.032428741E-1
1.875541382E1,2.621856332E-2,2.194113731E-1,4.835796356E-2
1.876554399E1,-2.113693953E-2,1.956143379E-1,2.483644485E-1
1.877567402E1,-5.490216613E-2,1.036429405E-1,2.946805954E-1
1.878580366E1,-4.926140606E-2,1.852440834E-2,1.172046661E-1
1.879593332E1,5.580008030E-2,-5.368208885E-2,7.553863525E-2
1.880604216E1,8.882346749E-2,-7.990479469E-2,9.395599365E-2
1.881615092E1,1.366748214E-1,-5.956506729E-2,7.691287994E-2
1.882748488E1,1.184971333E-1,-5.242109299E-3,3.370857239E-2
1.883754689E1,8.209910989E-2,1.027631760E-2,7.884407043E-2
1.884760789E1,7.484015822E-2,3.907060623E-2,7.792472839E-2
1.885767039E1,2.501380444E-2,3.317356110E-2,3.338813782E-2
1.886773305E1,-1.737207174E-2,5.272293091E-2,2.198123932E-2
1.887779630E1,-5.863833427E-2,5.716252327E-2,4.142856598E-2
1.888785950E1,-6.691953540E-2,7.528829575E-2,2.977190018E-1
1.889792300E1,-3.342121840E-3,5.784463882E-2,2.453117371E-1
1.890798614E1,1.402786374E-2,-1.875853539E-2,2.580518723E-1
1.891804939E1,7.768154144E-3,-1.247773170E-1,-4.354276657E-1
1.892811306E1,2.594795823E-2,-1.542451382E-1,-1.535034180E-2
1.893817696E1,-2.303731441E-2,-8.667421341E-2,5.200376511E-1
1.894824069E1,-7.940235734E-2,4.694461823E-4,4.279327393E-2
1.895830427E1,-7.820779085E-2,1.074671745E-1,-3.836736679E-1
1.896836812E1,-9.569436312E-3,2.145454884E-1,-2.978992462E-2
1.897843197E1,5.596020818E-2,2.628147602E-1,-5.739784241E-2
1.898853077E1,3.431469202E-3,2.323822975E-1,-1.700315475E-1
1.899862733E1,-2.365922928E-2,1.429448128E-1,-7.875919342E-2
1.900872198E1,5.201008916E-2,6.471705437E-2,-1.027088165E-1
1.901881481E1,1.561003327E-1,-1.444721222E-2,-1.031856537E-1
1.902890597E1,2.002288997E-1,-1.364684105E-2,-8.181285858E-2
1.903899552E1,1.695680916E-1,-2.685618401E-2,2.680301666E-2
1.904908376E1,5.252063274E-3,-1.598429680E-2,6.701469421E-2
1.905917085E1,-1.268358827E-1,-4.997134209E-2,4.768753052E-2
1.906929263E1,-1.715301722E-1,-7.076334953E-2,1.165151596E-1
1.907941209E1,-1.194995046E-1,-8.071970940E-2,1.379365921E-1
1.908952945E1,-5.130979419E-2,-4.671788216E-2,1.069583893E-1
1.909964487E1,-3.112637997E-2,-5.691313744E-2,2.046775818E-2
1.910975846E1,-4.955345392E-2,-2.183771133E-2,2.150344849E-2
1.911987036E1,-4.044321179E-2,2.780151367E-2,-4.534530640E-2
1.912998070E1,3.415766358E-2,6.014370918E-2,-2.864933014E-2
1.914008977E1,8.686158061E-2,4.814219475E-2,6.264781952E-2
1.915019907E1,1.211372912E-1,5.981922150E-4,1.277332306E-1
1.916030850E1,1.323459744E-1,-2.815294266E-2,1.734848022E-1
1.917041803E1,1.349104047E-1,-4.001975060E-2,1.665782928E-1
1.918052766E1,1.261749268E-1,1.124453545E-2,7.621192932E-2
1.919063743E1,5.284655094E-2,8.562850952E-2,2.958202362E-2
1.920074733E1,-1.819700003E-3,1.568284035E-1,-7.383537292E-2
1.921085746E1,-2.504187822E-2,1.911375523E-1,-2.102050781E-1
1.922096760E1,-4.520976543E-2,1.934268475E-1,-1.664266586E-1
1.923109530E1,-2.720776200E-2,1.663272381E-1,1.754760742E-4
1.924122323E1,2.207961679E-2,1.115474701E-1,8.580112457E-2
1.925135150E1,1.004706919E-1,7.997608185E-2,1.064767838E-1
1.926148010E1,1.144868731E-1,4.907035828E-2,-2.439117432E-2
1.927160880E1,1.067407727E-1,4.841852188E-2,-8.758544922E-2
1.928173770E1,5.654877424E-2,1.139717102E-1,2.986249924E-1
1.929184936E1,-4.312404990E-2,1.070656776E-1,1.038331985E-1
1.930196130E1,-1.189105511E-1,-3.831171989E-2,2.581272125E-1
1.931342789E1,-1.724438518E-1,-1.731362343E-1,-6.435194016E-1
1.932349588E1,-1.330899447E-1,-2.489833832E-1,-1.558046341E-1
1.933356388E1,-1.350421757E-1,-2.378659248E-1,4.636640549E-1
1.934362938E1,-1.131666154E-1,-1.126973629E-1,-1.286029816E-2
1.935369338E1,2.265873551E-2,9.510350227E-2,-6.968116760E-2
1.936375688E1,1.406020522E-1,3.262395859E-1,2.730407715E-1
1.937382028E1,1.171560585E-1,4.328570366E-1,4.461479187E-2
1.938388345E1,3.066387773E-2,3.957550526E-1,-1.086025238E-1
1.939394645E1,-3.551328182E-2,2.195580006E-1,3.121662140E-2
1.940401033E1,4.029345512E-2,5.445480347E-3,1.161146164E-1
1.941407455E1,3.617241979E-2,-1.770544052E-1,-7.036209106E-2
1.942413885E1,-2.931898832E-2,-3.592288494E-1,-1.260442734E-1
1.943420312E1,-1.050187051E-1,-3.595495224E-1,-9.076499939E-2
1.944426745E1,-1.510810405E-1,-3.251869678E-1,-6.213188171E-2
1.945433161E1,-1.846486330E-1,-2.390310764E-1,-1.142034531E-1
1.946439561E1,-1.418305188E-1,-1.285696030E-1,-2.245616913E-2
1.947449454E1,-4.818232358E-2,-3.699398041E-2,7.143020630E-3
1.948459123E1,1.074463129E-3,2.085471153E-2,-1.675605774E-3
1.949468587E1,3.134471178E-2,3.488492966E-2,8.352279663E-3
1.950477882E1,-1.196295023E-2,6.129574776E-2,8.463954926E-2
1.951487024E1,-2.842009068E-2,6.870007515E-2,2.356433868E-2
1.952496029E1,7.882118225E-4,9.702420235E-2,-1.263675690E-1
1.953504891E1,5.111610889E-2,1.030914783E-1,3.560256958E-2
1.954513636E1,4.674676061E-2,4.901790619E-2,1.002969742E-1
1.955638588E1,-7.583171129E-3,-1.230597496E-2,7.158374786E-2
1.956644988E1,-1.179143786E-2,-5.024337769E-2,5.700683594E-2
1.957654088E1,1.265919209E-2,-7.366609573E-2,6.644153595E-2
1.958661738E1,3.694784641E-2,-7.033205032E-2,2.099990845E-2
1.959669039E1,1.965397596E-2,-4.351997375E-2,-3.063201904E-3
1.960676088E1,2.435809374E-2,-1.682376862E-2,5.661201477E-2
1.961682969E1,4.356420040E-2,-1.408553123E-2,2.530002594E-2
1.962689752E1,7.334291935E-3,-6.787538528E-3,-2.524948120E-2
1.963696409E1,4.618763924E-3,-2.679753304E-2,-4.030323029E-2
1.964703034E1,9.928792715E-3,-7.064342499E-3,-7.909774780E-3
1.965709645E1,-2.804309130E-3,7.080078125E-3,-1.363077164E-1
1.966716205E1,-3.378456831E-2,-1.669549942E-2,5.978584290E-3
1.967722750E1,-7.276357710E-2,-1.844215393E-2,4.081115723E-1
1.968729292E1,-4.700218141E-2,-8.156943321E-2,3.269939423E-1
1.969736069E1,-4.862971604E-2,-1.708936691E-1,-4.323844910E-1
1.970742833E1,-2.044641972E-2,-3.901100159E-1,-4.720506668E-1
1.971753653E1,4.727712274E-2,-4.032590389E-1,3.395195007E-1
1.972764216E1,2.334025502E-2,-1.356236935E-1,4.376068115E-1
1.973774551E1,1.731082797E-2,2.704474926E-1,-1.900444031E-1
1.974784651E1,8.262187243E-3,5.762121677E-1,-2.120542526E-1
1.975794556E1,-9.581387043E-3,6.842329502E-1,-3.869915009E-2
1.976804296E1,-9.279282391E-2,5.424876213E-1,-2.495574951E-2
1.977813872E1,-1.220930964E-1,2.399394512E-1,8.921146393E-2
1.978823308E1,-7.204675674E-2,-1.301062107E-1,1.744422913E-1
1.979836152E1,4.088202119E-2,-3.856098652E-1,4.401206970E-2
1.980848743E1,7.024523616E-2,-4.450485706E-1,-2.182159424E-1
1.981861091E1,2.662968636E-2,-4.060666561E-1,-2.073564529E-1
1.982873214E1,-5.406899750E-2,-2.521531582E-1,4.160976410E-2
1.983885126E1,-7.027596235E-2,-1.211941242E-1,7.314205170E-2
1.984896851E1,-3.569960594E-2,-3.066110611E-2,-1.620178223E-1
1.985908392E1,1.072287560E-2,-3.755879402E-2,-3.093118668E-1
1.986919775E1,6.166465580E-2,-9.684562683E-2,-8.058452606E-2
1.987931065E1,6.827820837E-2,-1.592299938E-1,9.857559204E-2
1.988942372E1,4.885879159E-2,-1.402235031E-1,2.035036087E-1
1.989953675E1,-4.979580641E-2,-9.104156494E-2,1.322622299E-1
1.990964982E1,-7.274638116E-2,1.892328262E-2,-4.120826721E-2
1.991976305E1,-1.175311208E-2,1.793823242E-1,-3.269195557E-2
1.992987638E1,1.444953680E-2,2.447044849E-1,-5.400466919E-2
1.993998995E1,1.678690314E-3,1.972126961E-1,-8.394813538E-2
1.995010351E1,-2.982763946E-2,9.773349762E-2,4.441547394E-2
1.996023778E1,-6.283722818E-2,-4.517412186E-2,5.290126801E-2
1.997037211E1,-6.745538116E-2,-9.740400314E-2,-2.971553802E-2
1.998050648E1,-3.973905742E-2,-1.303637028E-1,-3.084468842E-2
1.999064081E1,-9.920150042E-3,-1.074740887E-1,2.105426788E-2
2.000077404E1,3.689213097E-2,-9.853792191E-2,5.158138275E-2
2.001090714E1,4.774913192E-2,-6.150937080E-2,2.915668488E-2
2.002101988E1,4.981680214E-2,-5.992555618E-2,-1.807975769E-2
2.003113251E1,6.436061859E-2,-1.944398880E-2,-3.500080109E-2
2.004250688E1,6.698414683E-3,8.788108826E-4,-1.577024460E-1
2.005256789E1,-6.794141233E-2,1.731944084E-2,-1.914110184E-1
2.006263088E1,-1.064850315E-1,-1.715564728E-2,5.496025085E-3
2.007269539E1,-4.981581867E-2,-1.616120338E-2,4.522800446E-1
2.008276138E1,-1.554468274E-2,-8.689641953E-3,3.919601440E-2
2.009282738E1,-5.983412266E-4,-2.138504982E-1,-7.384452820E-1
2.010289319E1,1.720494032E-2,-4.500515461E-1,1.074924469E-1
2.011295935E1,-2.480220795E-2,-4.510083199E-1,7.528181076E-1
2.012302521E1,-7.512935996E-2,-1.445436478E-2,-1.343879700E-1
2.013309083E1,-1.129105687E-3,3.808677197E-1,-5.516653061E-1
2.014315639E1,6.259271502E-2,6.679172516E-1,-3.029232025E-1
2.015322159E1,-1.398900151E-2,6.789550781E-1,-1.361417770E-1
2.016328641E1,-1.257106662E-1,3.946869373E-1,-2.953243256E-2
2.017335124E1,-1.423168033E-1,1.936626434E-2,1.023445129E-1
2.018341662E1,-6.318588555E-2,-2.726018429E-1,1.981124878E-1
2.019348176E1,2.055950463E-2,-4.490656853E-1,-1.710319519E-2
2.020358117E1,1.439052820E-2,-4.431622028E-1,-3.039388657E-1
2.021367823E1,-2.859240770E-2,-3.241531849E-1,-4.109373093E-1
2.022377328E1,-5.290804803E-2,-1.556913853E-1,-2.203512192E-1
2.023386667E1,-3.875491023E-2,-3.527379036E-2,1.086139679E-2
2.024395841E1,-3.146757185E-2,4.479861259E-2,-6.528663635E-2
2.025404866E1,7.015842199E-2,-2.824950218E-2,-3.052663803E-1
2.026413761E1,9.962271154E-2,-1.900088787E-1,7.240772247E-2
2.027422543E1,1.386530995E-1,-2.589058876E-1,2.114925385E-1
2.028547288E1,5.908752978E-2,-1.772732735E-1,1.349906921E-1
2.029553088E1,-2.537055314E-2,-5.599021912E-3,-1.235866547E-2
2.030559488E1,-7.605809718E-2,1.394212246E-1,-1.944208145E-1
2.031565788E1,-7.382891327E-2,3.220069408E-1,-9.329509735E-2
2.032572055E1,-4.358941317E-2,3.454658985E-1,1.664543152E-2
2.033578305E1,-3.267590702E-2,2.153213024E-1,9.874820709E-2
2.034584485E1,-1.715843379E-2,5.737805367E-2,1.059885025E-1
2.035590668E1,2.901718020E-3,-1.193683147E-1,4.290771484E-2
