"Time (s)","Linear Acceleration x (m/s^2)","Linear Acceleration y (m/s^2)","Linear Acceleration z (m/s^2)"
2.376343200E-2,-1.993161440E-2,-1.071457863E-1,-4.230499268E-3
3.381143200E-2,-4.546251893E-2,-1.045124531E-1,-9.466838837E-2
4.385943200E-2,-5.809098482E-2,-4.293632507E-2,-1.957044601E-1
5.390843200E-2,-9.289126098E-2,-4.569101334E-2,5.680656433E-2
6.395776500E-2,-2.992716432E-2,-2.732586861E-2,1.464414597E-1
7.400751500E-2,3.790318966E-3,-3.549218178E-2,-2.202510834E-1
8.495343200E-2,2.360945940E-2,-2.803063393E-2,-5.916976929E-2
9.500343200E-2,-3.548577428E-2,2.634763718E-2,-3.264141083E-2
1.050514320E-1,-2.581965923E-2,4.604721069E-2,-4.531764984E-2
1.150989320E-1,-2.547347546E-2,4.266953468E-2,-5.767250061E-2
1.251462650E-1,-3.976882994E-2,-1.732850075E-2,-1.268672943E-1
1.351945150E-1,-7.047832012E-3,-3.027462959E-2,-1.125240326E-2
1.452429150E-1,-9.149998426E-3,-4.956364632E-2,1.083965302E-1
1.552919150E-1,-3.519554436E-2,-4.554271698E-2,4.105854034E-2
1.662169150E-1,-5.376179516E-2,-4.289913177E-2,-1.857376099E-2
1.762744320E-1,-4.015643895E-2,-3.060817719E-2,7.742881775E-2
1.863264320E-1,1.371945441E-2,-5.775928497E-3,-3.901386261E-2
1.963784320E-1,4.394948483E-4,2.893853188E-2,4.007339478E-3
2.064304320E-1,-3.647990525E-2,3.469014168E-2,1.545715332E-2
2.164817650E-1,-2.486504614E-2,2.930068970E-2,2.188491821E-2
2.265325150E-1,2.727621794E-2,4.351973534E-2,6.408691406E-2
2.365827150E-1,6.092900038E-2,6.052565575E-2,1.255035400E-3
2.467650480E-1,7.601998746E-2,6.443214417E-2,-5.638122559E-3
2.569283330E-1,1.697888970E-2,8.926773071E-2,-1.411437988E-2
2.670777080E-1,1.218736172E-3,5.265569687E-2,-1.877784729E-2
2.772159300E-1,-8.314266801E-2,-1.581859589E-2,1.893711090E-2
2.873451300E-1,-7.276749611E-2,-4.650235176E-2,-1.237869263E-3
2.974670390E-1,-4.139211774E-2,-2.120327950E-2,-4.042625427E-3
3.075831220E-1,3.826832771E-2,9.672403336E-3,-1.758575439E-3
3.176941980E-1,4.158771038E-2,4.355907440E-3,2.914428711E-2
3.278576980E-1,5.043956637E-2,-7.066726685E-4,7.763862610E-3
3.380136310E-1,2.951557934E-2,-2.852368355E-2,2.394962311E-2
3.481629430E-1,-3.078056872E-2,-3.428721428E-2,1.781463623E-3
3.583062950E-1,-5.436383188E-2,-4.256987572E-2,-1.540088654E-2
3.684444610E-1,-6.177498400E-2,-2.966594696E-2,-2.852439880E-2
3.785778290E-1,-1.827083528E-2,-9.166479111E-3,-1.928806305E-2
3.887070290E-1,1.145035028E-3,-2.269434929E-2,-1.748752594E-2
3.988323140E-1,3.472620249E-2,-7.160902023E-3,5.989074707E-3
4.089902230E-1,5.545546114E-2,1.937127113E-2,1.604461670E-2
4.191433530E-1,1.733303070E-2,2.317929268E-2,6.092071533E-3
4.292920190E-1,-2.360890806E-2,-8.107900620E-3,-2.700805664E-3
4.394364990E-1,-3.560838103E-2,2.147340775E-2,-3.284454346E-3
4.495771140E-1,-3.579089046E-2,2.743434906E-2,7.766246796E-2
4.597141880E-1,-2.751760185E-2,1.300787926E-2,3.149032593E-2
4.698480090E-1,-2.506089211E-2,4.489421844E-4,-1.422405243E-2
4.799788020E-1,-3.447170556E-2,-3.145503998E-2,-3.127956390E-2
4.909048020E-1,2.270360291E-2,7.447004318E-3,3.270530701E-2
5.010874320E-1,3.351880610E-2,1.258468628E-2,1.759815216E-2
5.111334320E-1,3.018948436E-2,3.643202782E-2,-1.923179626E-2
5.211814320E-1,2.707137167E-2,4.233741760E-2,1.226520538E-2
5.312264320E-1,3.249701858E-2,3.121948242E-2,2.124691010E-2
5.412707650E-1,8.989974856E-3,3.350353241E-2,5.881309509E-3
5.513160150E-1,-2.856178582E-2,1.505112648E-2,-4.348754883E-3
5.613606150E-1,-1.391433179E-2,1.111602783E-2,-2.537727356E-3
5.722944320E-1,-9.246587753E-3,3.380775452E-4,-2.692794800E-2
5.823414320E-1,-2.112895250E-3,-7.648706436E-3,-1.046657562E-2
5.923884320E-1,3.363853693E-2,-2.248239517E-2,-2.021503448E-2
6.024339320E-1,1.193004847E-2,-3.944087029E-2,1.562786102E-2
6.124805980E-1,1.155802608E-2,-4.663276672E-2,2.407264709E-2
6.225278480E-1,-1.715293527E-2,-3.474926949E-2,7.279396057E-3
6.325752480E-1,8.863210678E-4,-4.996585846E-2,-8.631706238E-3
6.426227480E-1,-1.087065041E-2,-2.404570580E-2,-1.611709595E-3
6.527843190E-1,1.292781532E-2,-2.220487595E-2,-2.336406708E-2
6.629318190E-1,-8.526325226E-3,-5.396890640E-2,-1.163578033E-2
6.730683740E-1,3.389865160E-3,-2.831745148E-2,-2.314567566E-3
6.831959740E-1,1.294666529E-2,-2.443361282E-2,-2.654075623E-3
6.933159740E-1,1.300972700E-2,-1.830196381E-2,-1.262855530E-2
7.034296400E-1,1.302897930E-3,-1.928019524E-2,3.758430481E-3
7.135382550E-1,1.544013619E-3,6.020784378E-3,-1.425743103E-3
7.236426830E-1,-2.687306702E-2,1.930594444E-2,-1.141643524E-2
7.337961490E-1,-2.095103264E-4,8.629322052E-3,-2.259254456E-3
7.439431490E-1,-2.145063877E-2,1.944708824E-2,-2.700805664E-3
7.540843250E-1,9.906217456E-3,1.341176033E-2,1.614570618E-3
7.642203800E-1,6.142258644E-4,7.514953613E-3,1.316165924E-2
7.743516430E-1,-8.673220873E-3,2.330017090E-2,2.715492249E-2
7.844788430E-1,5.995586514E-3,-1.691341400E-3,2.812385559E-3
7.946022710E-1,-1.287563145E-2,-1.704883575E-2,3.910064697E-5
8.047223160E-1,-1.042795181E-2,-4.448008537E-2,-5.159378052E-3
8.148745330E-1,-1.269665360E-2,-3.579497337E-2,-7.085800171E-4
8.250224490E-1,-1.247285306E-2,-4.634261131E-2,-1.304817200E-2
8.351663690E-1,9.159490466E-3,-2.322626114E-2,-1.387596130E-3
8.453066760E-1,6.547257304E-3,-3.113722801E-2,-6.442070007E-3
8.554435640E-1,-8.015438914E-3,-2.694296837E-2,-1.384162903E-2
8.655771710E-1,-1.068152487E-2,-4.671764374E-2,-2.603721619E-2
8.757078260E-1,8.204519749E-3,-5.910062790E-2,-3.336811066E-2
8.858356260E-1,1.765067875E-2,-1.633834839E-2,-3.109359741E-2
8.971154320E-1,3.440849483E-2,-9.769439697E-3,2.195358276E-3
9.071664320E-1,1.091125607E-2,-1.336097717E-2,-6.561279297E-4
9.172154320E-1,4.458695650E-3,-5.562067032E-2,-2.998828888E-2
9.272644320E-1,9.668454528E-3,-6.629467010E-2,-2.562046051E-2
9.373130980E-1,-1.174567640E-2,-5.941605568E-2,5.387306213E-3
9.473610980E-1,-4.686519504E-3,-5.201840401E-2,-1.128768921E-2
9.574090980E-1,4.840344191E-3,-3.998064995E-2,-1.126194000E-2
9.674569310E-1,7.265344262E-3,-4.035663605E-2,5.324172974E-2
9.784184320E-1,3.113573790E-2,-1.495051384E-2,7.405281067E-3
9.884644320E-1,3.376798332E-2,-1.871824265E-3,-1.056060791E-1
9.985094320E-1,2.548746765E-2,-1.087689400E-2,3.813743591E-3
1.008555432E0,2.639845014E-3,-6.133055687E-2,-4.984283447E-2
1.018600098E0,-2.990432084E-2,-4.256248474E-2,-4.850769043E-2
1.028644348E0,-5.237707496E-2,-4.080486298E-2,2.310562134E-2
1.038688948E0,-3.851725161E-2,-8.845949173E-2,1.608467102E-2
1.048734114E0,-7.509216666E-3,-8.403468132E-2,1.840877533E-2
1.059700432E0,6.496846676E-2,-3.843545914E-2,-3.939628601E-3
1.069744432E0,4.703433812E-2,-1.376080513E-2,-6.246566772E-4
1.079787432E0,2.570325136E-2,1.567912102E-2,-3.565979004E-2
1.089830932E0,5.686223507E-3,-1.518011093E-3,-2.717208862E-2
1.099874598E0,-3.796784580E-2,-2.661299706E-2,1.083374023E-3
1.109918598E0,-3.893391788E-2,-3.403353691E-2,-2.537822723E-2
1.119962198E0,3.113090992E-3,-1.749658585E-2,-1.352596283E-2
1.130006031E0,2.828216553E-2,6.211042404E-3,1.269245148E-2
1.140166602E0,3.166946769E-2,2.711629868E-2,2.852439880E-3
1.150312977E0,-1.114398241E-3,9.268045425E-3,-1.672363281E-2
1.160448421E0,-1.528681815E-2,-3.246855736E-2,-1.950359344E-2
1.170574921E0,-2.002966404E-2,-8.807945251E-2,-2.928352356E-2
1.180694284E0,-2.214705944E-2,-1.217982769E-1,-7.817268372E-3
1.190807950E0,-1.682966948E-2,-1.266436577E-1,-4.136943817E-2
1.200916565E0,7.736250758E-3,-1.077353954E-1,-3.908252716E-2
1.211021065E0,-2.042293549E-2,-9.814286232E-2,-4.866790771E-2
1.221174798E0,4.120483994E-3,-5.217814445E-2,-3.414344788E-2
1.231322048E0,-7.476732135E-3,-5.634617805E-2,-1.237583160E-2
1.241463400E0,-3.227740526E-4,-7.275080681E-2,2.606201172E-2
1.251599455E0,-1.506455243E-2,-7.765436172E-2,-2.664184570E-2
1.261730612E0,-9.803920984E-4,-6.090831757E-2,-3.621673584E-2
1.271857812E0,-1.351162791E-3,-7.958889008E-3,5.008602142E-2
1.281981383E0,8.730143309E-4,-2.970457077E-3,7.068634033E-3
1.292101610E0,3.523498774E-3,-1.022195816E-2,-4.084682465E-2
1.302253827E0,1.117697358E-2,-1.287031174E-2,-4.813575745E-2
1.312401743E0,3.055168688E-2,-3.031778336E-2,2.103614807E-2
1.322545783E0,6.321564317E-3,-3.430843353E-4,-8.111953735E-3
1.332686167E0,9.174346924E-4,5.384206772E-3,-3.017997742E-2
1.342823129E0,3.688676655E-2,-1.496577263E-2,2.896308899E-3
1.352956950E0,2.032630146E-2,-4.474592209E-2,3.362751007E-2
1.363087708E0,-3.611505032E-3,-6.989383698E-2,-3.385353088E-2
1.373215708E0,-8.381709456E-3,-5.927348137E-2,-4.153442383E-2
1.384539432E0,1.536916196E-2,-3.389120102E-2,-2.991008759E-2
1.394589432E0,2.673648298E-2,-4.376626015E-2,-3.000450134E-2
1.404639432E0,7.169041038E-2,-4.638481140E-2,-3.736495972E-3
1.414690432E0,6.393143535E-2,-4.414463043E-2,-3.777503967E-3
1.424742098E0,1.084189117E-2,-7.265496254E-2,-2.044582367E-2
1.434793848E0,-3.691479564E-3,-5.770134926E-2,-3.698444366E-2
1.444845648E0,-3.250920773E-2,-7.848930359E-2,-5.578041077E-3
1.454897481E0,-3.956942260E-2,-5.628061295E-2,-1.251983643E-2
1.465844432E0,8.428007364E-3,-6.068921089E-2,-2.914333344E-2
1.475890432E0,-1.066817343E-2,-8.437037468E-2,-1.947212219E-2
1.485943432E0,1.571504772E-2,-1.007313728E-1,-9.748458862E-3
1.495995932E0,2.051816881E-2,-1.001472473E-1,-9.533882141E-3
1.506047265E0,3.863513470E-3,-9.498381615E-2,-2.615737915E-2
1.516097515E0,-5.496546626E-3,-8.031582832E-2,-1.647472382E-2
1.526147315E0,-5.193546414E-3,-4.649233818E-2,-2.355289459E-2
1.536196815E0,3.780424595E-5,-3.903651237E-2,-3.543472290E-2
1.547136432E0,7.763177156E-3,-2.952861786E-2,-1.632118225E-2
1.557184432E0,-3.504022956E-3,-3.703570366E-2,-1.645851135E-2
1.567233432E0,-5.283206701E-3,-2.073335648E-2,-9.459495544E-3
1.577280932E0,4.936695099E-3,-2.616262436E-2,9.441375732E-3
1.587329265E0,2.961575985E-3,-4.360270500E-2,-1.236820221E-2
1.597377265E0,3.178507090E-3,-3.946042061E-2,-1.500701904E-2
1.607425665E0,-1.344528794E-2,-5.688548088E-2,-5.677223206E-3
1.617473831E0,-1.245215535E-3,-5.993986130E-2,-1.310920715E-2
1.628413432E0,1.106299460E-2,-6.037330627E-2,-1.327610016E-2
1.638464432E0,-1.024293900E-2,-5.590224266E-2,-2.058315277E-2
1.648514432E0,4.290133715E-3,-5.848312378E-2,-2.065563202E-2
1.658564932E0,1.401178539E-2,-7.533168793E-2,-2.308654785E-2
1.668615932E0,1.179185510E-2,-8.480739594E-2,-3.262996674E-2
1.678667182E0,9.459510446E-3,-7.486462593E-2,-2.052783966E-2
1.688718582E0,1.649999619E-2,-6.994318962E-2,-2.286720276E-2
1.698770248E0,-4.315972328E-4,-6.296873093E-2,-2.293968201E-2
1.709721432E0,9.508132935E-3,-6.594014168E-2,-2.316188812E-2
1.719773432E0,7.410869002E-3,-5.690121651E-2,-3.294372559E-2
1.729825432E0,1.951859891E-2,-6.165146828E-2,-1.617431641E-2
1.739875432E0,2.192741632E-2,-3.938245773E-2,-1.543998718E-3
1.749924765E0,5.331277847E-3,-4.366493225E-2,-1.812076569E-2
1.759974515E0,7.796362042E-3,-5.820512772E-2,2.251243591E-2
1.770024515E0,2.463339269E-2,-6.121540070E-2,4.383373260E-2
1.780073848E0,1.750832796E-2,-2.371406555E-2,-1.072998047E-1
1.791033432E0,1.913206279E-2,-4.376029968E-2,-2.626609802E-2
1.801083432E0,1.360240579E-2,-6.009292603E-2,1.699447632E-3
1.811135432E0,-1.635824144E-2,-5.563664436E-2,-8.552360535E-2
1.821186432E0,-3.513221443E-2,-1.884293556E-2,1.447010040E-2
1.831238098E0,-7.276479900E-2,-7.368469238E-2,-9.347915649E-3
1.841290098E0,-2.237944305E-2,-1.133131981E-1,-6.502151489E-3
1.851342898E0,6.223504245E-2,-9.620237350E-2,1.042556763E-2
1.861395731E0,7.990117371E-2,-4.540324211E-2,9.775161743E-3
1.872351432E0,2.189339697E-2,-1.082801819E-2,1.560211182E-2
1.882405432E0,-1.543375850E-2,-1.857900620E-2,-2.142047882E-2
1.892459432E0,-2.599275112E-2,-4.842853546E-2,-5.105972290E-3
1.902512432E0,-2.751776576E-2,-5.794239044E-2,-2.712249756E-3
1.912565765E0,6.875693798E-3,-5.072689056E-2,-2.187442780E-2
1.922618765E0,3.903506696E-2,-9.772777557E-4,-1.970005035E-2
1.932671765E0,5.906365812E-2,1.019716263E-2,3.929138184E-3
1.942723598E0,3.093065321E-2,6.708383560E-3,-2.282238007E-2
1.953658598E0,-6.858021021E-3,1.308941841E-2,-4.228210449E-2
1.963704432E0,-6.473004818E-3,-5.186700821E-2,-3.522300720E-2
1.973760432E0,-1.325033605E-2,-9.244322777E-2,-2.561092377E-2
1.983814432E0,-1.525440812E-2,-1.115319729E-1,-3.996086121E-2
1.993867932E0,-1.479749382E-2,-1.211581230E-1,-4.238605499E-2
2.003920932E0,-2.628456056E-2,-1.257803440E-1,-3.036499023E-2
2.013974432E0,-1.636707783E-2,-1.082904339E-1,-2.052974701E-2
2.024027432E0,-4.197388887E-3,-1.049847603E-1,-1.047134399E-3
2.034966432E0,-3.042699397E-2,-1.735959053E-1,-7.257556915E-2
2.045009432E0,8.536204696E-3,-1.287124157E-1,-5.517768860E-2
2.055051432E0,2.615548670E-2,-2.773523331E-2,-1.494407654E-3
2.065094432E0,7.174745202E-3,2.008461952E-2,3.287410736E-2
2.075137098E0,1.673670113E-2,2.338981628E-2,7.151508331E-2
2.085180598E0,2.042949200E-5,-1.749539375E-2,-4.107952118E-2
2.095224998E0,-4.311069846E-3,-3.698205948E-2,-3.642463684E-2
2.105269998E0,1.940365136E-2,-5.878448486E-2,-4.608821869E-2
2.116223432E0,1.657287776E-2,-3.300642967E-2,1.596546173E-2
2.126271432E0,1.799775660E-2,-1.267337799E-2,-1.215934753E-3
2.136315432E0,2.921505272E-2,-9.552240372E-3,-1.856803894E-2
2.146361932E0,2.654379606E-2,-2.798080444E-2,2.374649048E-3
2.156406932E0,-2.285584807E-3,-3.662443161E-2,-2.449417114E-2
2.166451432E0,-9.337410331E-3,-8.600687981E-2,-3.462219238E-2
2.176496632E0,-2.364172041E-2,-7.720446587E-2,-4.687881470E-2
2.186541965E0,-1.417724788E-2,-6.317400932E-2,-5.178642273E-2
2.197483432E0,2.857547998E-2,-4.598474503E-2,-4.204273224E-2
2.207531432E0,4.499934614E-2,-3.311038017E-2,-1.536941528E-2
2.217580432E0,3.486689925E-2,-5.831766129E-2,1.816749573E-3
2.227629932E0,5.572617054E-3,-6.188249588E-2,-9.691238403E-3
2.237678932E0,4.851520061E-4,-9.437823296E-2,-4.520416260E-3
2.247727432E0,-3.345313668E-2,-9.802746773E-2,-8.881568909E-3
2.257776232E0,-3.854681551E-2,-8.274579048E-2,-6.121063232E-2
2.267824732E0,-3.849069774E-2,-1.130051613E-1,-3.934764862E-2
2.278775432E0,1.689483225E-2,-4.006290436E-2,-1.739788055E-2
2.288827432E0,5.337952077E-2,8.558273315E-3,-1.235294342E-2
2.298876432E0,6.809830666E-2,4.425764084E-2,1.150226593E-2
2.308924432E0,4.397885501E-2,-6.032013893E-2,-2.739715576E-2
2.318971765E0,8.074805140E-3,-6.298279762E-2,-2.597999573E-2
2.329020265E0,4.653787613E-2,5.437994003E-2,4.977130890E-2
2.339068865E0,1.325923204E-2,8.501243591E-2,5.110359192E-2
2.349117698E0,-1.773592830E-2,8.661746979E-4,-1.542091370E-2
2.360065432E0,-5.367775261E-2,-1.308987141E-1,-1.545391083E-1
2.370115432E0,-7.977780700E-2,-2.466595173E-1,-1.230735779E-1
2.380162432E0,-2.064009011E-2,-1.806993484E-1,6.808853149E-2
2.390211432E0,7.621672750E-2,-5.000257492E-2,4.229736328E-2
2.400259765E0,8.793956041E-2,2.038478851E-4,-3.194332123E-2
2.410308765E0,4.498140514E-2,-3.661370277E-2,-8.734321594E-2
2.420357765E0,-1.932001114E-2,-1.413729191E-1,-9.192657471E-2
2.430407098E0,-1.403674483E-2,-1.934602261E-1,-1.076145172E-1
2.441358432E0,-1.188596040E-1,-9.491658211E-2,-3.870582581E-2
2.451410432E0,3.183597326E-2,3.660345078E-2,1.960964203E-1
2.461460432E0,3.625881672E-2,-1.651024818E-2,6.688976288E-2
2.471509932E0,-3.708902001E-2,-9.880113602E-2,-5.707740784E-2
2.481559265E0,-1.263652742E-2,-1.273400784E-1,-7.465553284E-2
2.491608265E0,1.618537307E-2,-7.475733757E-2,-1.092433929E-2
2.501657265E0,1.350750029E-2,-8.625125885E-2,-2.598285675E-2
2.511706098E0,5.377963185E-2,-8.311057091E-2,-4.572772980E-2
2.522670432E0,4.410803318E-2,-5.108785629E-2,-5.585002899E-2
2.532719432E0,-3.276973963E-3,-5.228948593E-2,4.425621033E-2
2.542767432E0,-1.746436954E-2,-1.469349861E-2,-5.656337738E-2
2.552815432E0,-2.447094023E-2,-2.943301201E-2,-1.405029297E-1
2.562863098E0,1.249164343E-3,-1.159863472E-1,4.846477509E-2
2.572911348E0,1.870723069E-2,-1.549639702E-1,-2.601909637E-2
2.582959348E0,2.847826481E-2,-8.677959442E-2,-3.605365753E-2
2.593007014E0,2.762797475E-2,-5.419683456E-2,2.108478546E-2
2.603965432E0,1.057440042E-2,-1.252574921E-1,-6.802654266E-2
2.614013432E0,5.457800627E-2,-1.079318523E-1,-2.316665649E-2
2.624061432E0,8.422155678E-2,-5.014729500E-2,3.357601166E-2
2.634109432E0,5.680704117E-2,9.544920921E-2,7.087707520E-2
2.644157098E0,1.223087311E-4,8.153271675E-2,1.182079315E-2
2.654205098E0,-5.956611037E-2,-6.719779968E-2,-2.120876312E-2
2.664253498E0,-8.580580354E-2,-1.699788570E-1,-1.395225525E-3
2.674302331E0,-2.418012917E-2,-9.955978394E-2,-2.196502686E-2
2.685262432E0,5.359251797E-2,-3.829932213E-2,-7.109832764E-2
2.695310432E0,7.619455457E-2,-2.470922470E-2,-8.423805237E-2
2.705360432E0,5.804532766E-2,-2.932906151E-2,-1.161890030E-1
2.715408932E0,8.233316243E-2,-7.042050362E-2,-6.845378876E-2
2.725456598E0,9.841896594E-2,-5.858898163E-2,-5.375862122E-3
2.735503848E0,2.777582407E-2,-8.576345444E-2,2.480792999E-2
2.745551248E0,-5.201207101E-2,-1.448161602E-1,-5.142211914E-3
2.755598748E0,-7.791812718E-2,-1.772828102E-1,-5.984020233E-2
2.766549432E0,-1.151569188E-1,-1.821970940E-1,-2.639293671E-2
2.776595432E0,-9.255377948E-2,-1.471371651E-1,-2.784729004E-3
2.786644432E0,-1.226688921E-2,-1.364140511E-1,-6.311988831E-2
2.796691432E0,-3.050974011E-2,-1.204588413E-1,-3.470134735E-2
2.806738432E0,3.490656614E-3,-6.021022797E-2,-4.893493652E-2
2.816785432E0,7.097771764E-2,-4.258155823E-3,-2.947235107E-2
2.826833032E0,1.600538194E-2,9.158372879E-3,-1.458740234E-2
2.836880698E0,-1.100334525E-2,3.009009361E-2,-1.153469086E-2
2.847838432E0,-1.632566750E-2,5.414485931E-4,9.199905396E-2
2.857891432E0,-3.106555343E-2,-3.667712212E-2,-1.054954529E-2
2.867945432E0,4.606869817E-2,1.362705231E-2,-7.040691376E-2
2.877997932E0,8.734470606E-2,4.885888100E-2,-4.193592072E-2
2.888049932E0,5.654785037E-2,-3.871393204E-2,1.022911072E-2
2.898101432E0,2.718655765E-2,-1.192047596E-1,7.312774658E-3
2.908153232E0,-9.409517050E-3,-1.705329418E-1,-4.332828522E-2
2.918204898E0,-2.834537625E-2,-1.614577770E-1,-5.208015442E-3
2.929145432E0,-1.375365257E-2,-1.922140121E-1,6.890296936E-3
2.939195432E0,7.917165756E-3,-1.825706959E-1,-2.664566040E-3
2.949247432E0,3.964693844E-2,-1.638219357E-1,-7.944011688E-2
2.959299432E0,-4.822626710E-3,-3.259134293E-2,-1.394815445E-1
2.969350432E0,-1.455898583E-2,7.457065582E-2,-2.352714539E-3
2.979401432E0,2.107855678E-2,4.027247429E-2,3.267955780E-2
2.989452832E0,1.286077052E-1,-3.793621063E-2,-3.313922882E-2
2.999504498E0,1.276194155E-1,-1.184346676E-1,-5.433464050E-2
3.010466432E0,3.153148293E-2,-1.253459454E-1,-4.704570770E-2
3.020517432E0,-3.379337490E-2,-1.124768257E-1,-6.107044220E-2
3.030565432E0,-4.402954876E-2,-6.086826324E-2,-2.465724945E-2
3.040613932E0,-1.859624684E-2,-5.348873138E-2,-3.087902069E-2
3.050662598E0,2.731621265E-3,-7.743430138E-2,-1.324462891E-2
3.060711598E0,1.715488732E-2,-1.064641476E-1,-7.695198059E-3
3.070761198E0,2.441284060E-2,-1.381685734E-1,-9.432792664E-3
3.080811031E0,-7.081225514E-3,-1.244189739E-1,-1.595878601E-2
3.091775432E0,3.851956129E-2,-7.016682625E-2,-1.778030396E-2
3.101827432E0,1.695132256E-2,-5.933427811E-2,-1.971626282E-2
3.111878432E0,2.660162747E-2,-2.505111694E-2,-1.943874359E-2
3.121927432E0,2.184708416E-2,-3.663587570E-2,-2.408695221E-2
3.131975098E0,-2.053856850E-3,-7.963109016E-2,-7.292747498E-3
3.142023848E0,-1.891052723E-2,-7.936167717E-2,-2.404212952E-3
3.152073048E0,-3.577540815E-2,-6.924080849E-2,-1.656818390E-2
3.162122714E0,-1.403622329E-2,-3.540110588E-2,-2.124309540E-2
3.173075432E0,-2.098724246E-3,-6.148147583E-2,-1.636123657E-2
3.183126432E0,3.363706172E-2,-4.927110672E-2,-1.387500763E-2
3.193180432E0,3.814777732E-2,-7.053661346E-2,-2.813053131E-2
3.203231932E0,3.319929540E-2,-6.517219543E-2,-4.228115082E-2
3.213282932E0,-2.979338169E-3,-8.356404305E-2,-3.242015839E-2
3.223332682E0,6.326749921E-3,-9.003734589E-2,-1.300144196E-2
3.233383082E0,-1.792161167E-2,-9.195518494E-2,-2.239608765E-2
3.243433415E0,-3.650009632E-3,-7.741808891E-2,-3.669643402E-2
3.254391432E0,1.824468374E-2,-7.741498947E-2,-4.149150848E-2
3.264444432E0,1.100398600E-2,-8.166503906E-2,-4.129409790E-2
3.274491432E0,1.334877312E-2,-3.981423378E-2,-3.608512878E-2
3.284538932E0,2.763789892E-2,-4.814362526E-2,-3.083801270E-2
3.294586265E0,1.571863890E-2,-6.864619255E-2,-8.911132812E-3
3.304634265E0,-3.430545330E-3,-9.440493584E-2,5.115604401E-2
3.314681865E0,1.075096428E-2,-7.742905617E-2,-2.058601379E-2
3.324729865E0,6.326928735E-3,-6.783747673E-2,-1.139640808E-1
3.335699432E0,1.761266589E-2,-7.314467430E-2,2.466678619E-2
3.345746432E0,-5.454868078E-3,-8.666157722E-2,-9.562873840E-2
3.355793432E0,-2.902099490E-2,-6.409597397E-2,-3.868007660E-2
3.365839932E0,-2.218188345E-2,-5.381584167E-2,3.580570221E-2
3.375886932E0,1.343932748E-2,-7.840728760E-2,-2.813434601E-2
3.385934182E0,5.909310281E-2,-7.464432716E-2,-6.031036377E-3
3.395981782E0,8.866608143E-2,-7.296228409E-2,9.298324585E-4
3.406029948E0,5.877439678E-2,-1.117730141E-2,-9.662628174E-3
3.417019432E0,8.827090263E-3,-1.698732376E-2,-2.767753601E-2
3.427072432E0,-3.551912308E-2,-3.711485863E-2,6.685256958E-4
3.437122432E0,-4.427742958E-2,-7.754707336E-2,5.535125732E-3
3.447173432E0,4.147440195E-3,-6.042551994E-2,-4.941368103E-2
3.457222765E0,7.642382383E-2,-2.190041542E-2,-3.737258911E-2
3.467272265E0,3.811518848E-2,4.817485809E-3,-8.503913879E-3
3.477321065E0,2.214312553E-3,9.574890137E-3,-1.569843292E-2
3.487369565E0,9.594231844E-3,-2.407121658E-2,-3.729724884E-2
3.497534565E0,-2.574048936E-2,-7.230496407E-2,-3.025627136E-2
3.507684565E0,-5.944147706E-3,-1.107826233E-1,-3.033447266E-2
3.517825676E0,-2.976953983E-4,-9.126186371E-2,-6.134605408E-2
3.527957476E0,-4.235491157E-3,-1.146402359E-1,-4.200839996E-2
3.538081385E0,-3.731931746E-2,-1.045005322E-1,-3.702354431E-2
3.548198801E0,-5.872710049E-2,-1.325051785E-1,-3.676319122E-2
3.558310801E0,1.353493333E-2,-1.095962524E-1,-2.191066742E-2
3.568418086E0,2.584266663E-2,-1.200072765E-1,-1.895523071E-2
3.578521419E0,-1.268145442E-2,-1.448581219E-1,-1.122474670E-2
3.588621481E0,1.601411402E-2,-8.332800865E-2,-5.821228027E-3
3.598718481E0,4.328608513E-3,-5.356407166E-2,-3.418064117E-2
3.608812536E0,4.310995340E-3,-1.457071304E-2,-3.153610229E-2
3.618903904E0,-1.749968529E-2,1.491379738E-2,4.296684265E-2
3.628993004E0,-3.425189853E-2,-1.801729202E-3,-4.899978638E-3
3.639080194E0,-3.625033796E-2,-3.099322319E-2,-2.902126312E-2
3.649165784E0,-2.700111270E-2,-5.070090294E-2,4.302978516E-3
3.659271697E0,-8.395418525E-3,6.081914902E-2,9.971618652E-2
3.669375238E0,1.965904236E-2,1.726458073E-1,8.902263641E-2
3.679476598E0,8.961340785E-2,1.728515625E-1,-8.591938019E-2
3.689575905E0,1.499029696E-1,2.275657654E-2,-1.346960068E-1
3.699673275E0,1.573520154E-1,-1.345312595E-1,-1.203451157E-1
3.709768989E0,3.484711051E-3,-2.095036507E-1,-1.349678040E-1
3.719863057E0,-1.979776323E-1,-2.363176346E-1,-5.193424225E-2
3.729955457E0,-2.536759973E-1,-2.192628384E-1,4.423332214E-2
3.740074923E0,4.068930447E-2,-1.122388840E-1,1.839971542E-1
3.750194256E0,2.438471764E-1,-2.643299103E-2,2.272520065E-1
3.760313689E0,2.790063620E-1,-1.123216152E-1,-5.898475647E-2
3.770433055E0,6.899769604E-2,4.803180695E-3,-1.475343704E-1
3.780552455E0,-2.193996310E-2,1.860735416E-1,-1.587572098E-1
3.790671855E0,-1.447673738E-1,2.914323807E-1,-5.389785767E-2
3.800763955E0,-2.851981223E-1,3.696584702E-1,1.769590378E-1
3.810856121E0,-2.364176810E-1,7.805490494E-2,2.592353821E-1
3.820974987E0,-7.361412048E-3,-3.335394859E-1,2.044773102E-1
3.831093920E0,2.063258290E-1,-4.432685375E-1,3.654356003E-1
3.841213353E0,1.897015274E-1,-5.745952129E-1,4.762563705E-1
3.851332886E0,5.348503590E-3,-4.800915718E-1,6.081771851E-1
3.861452386E0,-7.283288240E-2,-4.118616581E-1,1.152891159E0
3.871571886E0,2.979554534E-1,-5.534477234E-1,1.394293785E0
3.881691286E0,4.529798031E-1,-3.095579147E-1,1.468465805E0
3.891810419E0,8.129239082E-2,-2.639379501E-1,1.486277580E0
3.901956252E0,-2.815148532E-1,-4.227499962E-1,1.387007713E0
3.912102085E0,-2.191680223E-1,-3.220512867E-1,1.353667259E0
3.922247818E0,1.244470477E-2,-2.378253937E-1,1.195231438E0
3.932393451E0,1.427546144E-1,-3.675274849E-1,9.686632156E-1
3.942538917E0,3.017513454E-1,-4.948101044E-1,9.438591003E-1
3.952684217E0,3.347171545E-1,-5.956132412E-1,1.035653114E0
3.962813117E0,3.498584926E-1,-5.785722733E-1,1.094483376E0
3.972941850E0,3.633670211E-1,-3.891749382E-1,1.006337166E0
3.984386432E0,2.530848086E-1,-3.977060318E-3,9.891147614E-1
3.994430432E0,5.686342716E-2,2.182228565E-1,1.107906342E0
4.004476432E0,-3.290801346E-1,-3.334283829E-2,1.641362190E0
4.014520432E0,-5.584899783E-1,-3.215217590E-1,2.146951675E0
4.024564432E0,-5.616039634E-1,-4.440336227E-1,2.450160980E0
4.034609182E0,-3.689705133E-1,-5.331325531E-1,2.409358978E0
4.044653782E0,-5.100667477E-5,-5.254836082E-1,2.215515137E0
4.054698448E0,3.172256351E-1,-4.920189381E-1,1.921684265E0
4.065628448E0,6.503431797E-1,-4.969999790E-1,1.538585663E0
4.075674432E0,7.663929462E-1,-6.358761787E-1,9.165649414E-1
4.085721432E0,7.670148611E-1,-7.474207878E-1,4.208774567E-1
4.095767432E0,3.541234136E-1,-6.443591118E-1,3.416061401E-3
4.105813432E0,-2.804425061E-1,-7.143476009E-1,-5.058479309E-2
4.115858765E0,-7.856890559E-1,-8.035187721E-1,5.511093140E-1
4.125904515E0,-7.287930846E-1,-6.966788769E-1,1.208562851E0
4.135949715E0,-3.369616866E-1,-4.946999550E-1,1.139799118E0
4.146128381E0,6.837791204E-2,-2.120444775E-1,6.122417450E-1
4.156287666E0,4.174898267E-1,-1.206426620E-1,-7.417869568E-2
4.166445416E0,4.083589911E-1,-2.462158203E-1,-3.594160080E-1
4.176590416E0,3.030372858E-1,-3.473813534E-1,-2.382545471E-1
4.186725316E0,4.462775588E-1,-2.333660126E-1,-2.949523926E-1
4.196853588E0,4.082558751E-1,-4.014310837E-1,-3.674726486E-1
4.206975421E0,1.066073626E-1,-4.453372955E-1,-2.825956345E-1
4.217091651E0,-1.253095865E-1,-3.693861961E-1,-3.155832291E-1
4.227202722E0,-1.167541593E-1,-1.938462257E-1,-3.737001419E-1
4.237309588E0,-1.558439732E-1,-9.900093079E-3,-4.343776703E-1
4.247412775E0,-1.475442946E-2,1.123356819E-1,-4.741678238E-1
4.257512480E0,3.530321419E-1,1.631712914E-1,-5.064840317E-1
4.267609035E0,4.564460218E-1,1.804718971E-1,-3.879442215E-1
4.277702666E0,3.161752224E-2,3.777790070E-2,-6.871223450E-3
4.287794116E0,-2.480776608E-1,-1.369738579E-1,3.955745697E-1
4.297883258E0,-3.557527363E-1,-1.386852264E-1,6.981105804E-1
4.307994348E0,-3.072930276E-1,8.023738861E-3,5.938005447E-1
4.318102782E0,-4.086720943E-2,1.143960953E-1,2.996253967E-2
4.328208823E0,9.538264573E-2,1.100125313E-1,-5.787200928E-1
4.338312623E0,1.433552355E-1,1.428079605E-2,-1.123185635E0
4.348414315E0,1.154728830E-1,-5.005311966E-2,-1.514556885E0
4.358514129E0,3.287008405E-1,7.492589951E-2,-1.414023876E0
4.368612164E0,5.932670236E-1,2.017250061E-1,-9.008259773E-1
4.378708336E0,4.383759201E-1,2.692627907E-1,-4.686527252E-1
4.388829636E0,1.661509275E-3,1.430430412E-1,-2.601966858E-1
4.398950902E0,-2.480025589E-1,1.920423508E-1,-2.286033630E-1
4.409072235E0,-3.123576343E-1,2.526955605E-1,-1.802453995E-1
4.419193568E0,-2.024272382E-1,2.185435295E-1,-3.059434891E-1
4.429315234E0,-1.932856292E-1,2.238736153E-1,-7.085065842E-1
4.439437000E0,-5.644947290E-2,3.323030472E-1,-1.037670135E0
4.449532033E0,6.540295482E-2,4.244575500E-1,-1.248932362E0
4.459627133E0,2.297407091E-1,5.244224072E-1,-1.336265087E0
4.469718699E0,2.513819039E-1,4.452621937E-1,-1.322607040E0
4.479810332E0,6.567239761E-4,2.521243095E-1,-1.277321339E0
4.489902132E0,-2.277067602E-1,1.598320007E-1,-1.194848537E0
4.499993598E0,-1.689992547E-1,1.749944687E-1,-1.112495899E0
4.510084998E0,-8.572831750E-2,2.521986961E-1,-1.150912762E0
4.520176498E0,5.648863316E-2,2.785296440E-1,-1.365139008E0
4.530268298E0,2.326150835E-1,2.835469246E-1,-1.622962952E0
4.540360264E0,2.512552142E-1,3.974530697E-1,-1.959939003E0
4.550472364E0,3.140323460E-1,6.314992905E-1,-2.389912605E0
4.560584697E0,1.482591629E-1,5.766701698E-1,-2.574386120E0
4.570697363E0,-1.370440722E-1,4.060137272E-1,-2.572195530E0
4.580810396E0,-2.309183478E-1,3.482782841E-1,-2.491245270E0
4.590923396E0,-1.504517794E-1,3.507850170E-1,-2.459962368E0
4.601036596E0,-1.224766374E-1,3.138380051E-1,-2.478817940E0
4.611132329E0,-3.501012921E-1,3.014314175E-1,-2.460545540E0
4.621228095E0,-5.271310210E-1,3.441751003E-1,-2.538143158E0
4.632159095E0,-7.170107365E-1,3.530871868E-1,-2.772633553E0
4.642069432E0,-5.197827816E-1,4.146726131E-1,-3.035494804E0
4.652118432E0,7.368355989E-2,6.081070900E-1,-3.343104839E0
4.662168432E0,7.851126194E-1,6.925034523E-1,-3.550172329E0
4.672219932E0,1.137498021E0,5.779151917E-1,-3.619618893E0
4.682273598E0,1.089948058E0,3.670485020E-1,-3.290233135E0
4.692326848E0,6.335441470E-1,1.812124252E-2,-2.296337605E0
4.702379448E0,1.582499444E-1,-2.578287125E-1,-1.201779842E0
4.712431781E0,-2.442679405E-1,-3.204617500E-1,-2.648849487E-1
4.722484066E0,-4.482703805E-1,-9.330606461E-2,2.089681625E-1
4.732536441E0,-4.422574043E-1,2.041625977E-1,4.273700714E-2
4.742588774E0,-1.522909105E-1,4.815015793E-1,-6.013746262E-1
4.752640974E0,3.040547669E-1,5.077757835E-1,-1.464417458E0
4.762693337E0,5.767647028E-1,2.351081371E-1,-2.016781330E0
4.772745920E0,8.173712492E-1,-2.408027649E-3,-2.185636520E0
4.782798612E0,1.063646317E0,-1.161751747E-1,-1.900930882E0
4.792895397E0,9.340393543E-1,-1.625671387E-1,-1.219098091E0
4.802989263E0,3.761321008E-1,-2.457609177E-1,-4.112586975E-1
4.813080513E0,-2.115721405E-1,-2.824616432E-1,2.599067688E-1
4.823169395E0,-4.386359155E-1,-2.053160667E-1,5.713758469E-1
4.833256006E0,-4.057633281E-1,-6.386947632E-2,4.816703796E-1
4.843340690E0,-1.788796335E-1,1.085519791E-2,1.320295334E-1
4.853423490E0,1.610681564E-1,8.866047859E-2,-4.767122269E-1
4.863504632E0,5.236742496E-1,2.070689201E-2,-9.754109383E-1
4.874777432E0,7.824881673E-1,-1.390707493E-1,-1.025133133E0
4.884824432E0,7.054452896E-1,-4.107344151E-1,-5.164785385E-1
4.894871432E0,4.231418967E-1,-7.857551575E-1,2.198162079E-1
4.904918432E0,1.684299111E-1,-8.419070244E-1,9.646224976E-1
4.914966098E0,-3.588401526E-2,-6.370611191E-1,1.535412788E0
4.925014348E0,-2.824357152E-1,-3.917436600E-1,1.659527779E0
4.935062348E0,-5.052925348E-1,-5.849313736E-2,1.485119820E0
4.945110014E0,-6.187216043E-1,3.052744865E-1,9.208135605E-1
4.955157014E0,-4.654724896E-1,4.504964352E-1,2.976303101E-1
4.965204264E0,-2.711969614E-2,4.587650299E-1,-3.596649170E-1
4.975251597E0,4.991876781E-1,2.620904446E-1,-8.854866028E-1
4.985299397E0,5.959591866E-1,-1.000726223E-1,-1.163616180E0
4.995347215E0,2.131530792E-1,-4.511954784E-1,-1.105073452E0
5.005395215E0,-3.179541230E-1,-9.083044529E-1,-7.295131683E-1
5.015443445E0,-5.101810098E-1,-1.188336611E0,-1.267662048E-1
5.025491873E0,-4.464494586E-1,-1.006130457E0,3.680887222E-1
5.035580739E0,-2.264906913E-1,-6.504938602E-1,4.557924271E-1
5.045667051E0,-1.074053496E-1,-2.292461395E-1,8.699512482E-2
5.055751227E0,-1.801723391E-1,1.622915268E-2,-2.933034897E-1
5.065833615E0,-2.423782498E-1,-4.174780846E-2,-2.808408737E-1
5.075914193E0,-2.015180886E-1,-1.431217194E-1,-1.284551620E-1
5.085993143E0,-1.447496116E-1,-1.760687828E-1,1.540651321E-1
5.096070809E0,-2.014682889E-1,-2.501037121E-1,3.337821960E-1
5.106147399E0,-3.148079515E-1,-3.950021267E-1,4.404630661E-1
5.116222746E0,-2.130347043E-1,-2.933709621E-1,5.853118896E-1
5.126296996E0,-2.073391974E-1,-2.288644314E-1,6.793231964E-1
5.136370356E0,-3.460083604E-1,-1.965527534E-1,6.420354843E-1
5.146442817E0,-2.573992312E-1,1.654601097E-2,4.240026474E-1
5.156514446E0,9.529587626E-2,3.303561211E-1,5.290412903E-2
5.166585338E0,6.418663263E-1,5.094580650E-1,-3.491926193E-1
5.176655717E0,8.889934421E-1,3.792846203E-1,-5.362014771E-1
5.186725517E0,6.328089833E-1,-4.301071167E-2,-2.580432892E-1
5.197880432E0,2.073577195E-1,-3.143525124E-1,2.690925598E-1
5.207933432E0,-5.419090390E-3,-4.354879856E-1,7.746133804E-1
5.217984432E0,1.324847341E-2,-3.161792755E-1,1.091974258E0
5.228036932E0,3.792698681E-1,-4.551672935E-2,1.474665642E0
5.238089932E0,4.330412447E-1,-2.540197372E-1,1.428002357E0
5.248142932E0,2.326103151E-1,-6.478149891E-1,1.145878792E0
5.258204332E0,7.716900110E-2,-6.888663769E-1,7.579469681E-1
5.268264165E0,7.154047489E-2,-3.625526428E-1,4.809789658E-1
5.279201165E0,2.413146496E-1,-9.966206551E-2,5.016250610E-1
5.289284432E0,4.838183522E-1,9.646129608E-2,4.504623413E-1
5.299339432E0,5.117514729E-1,1.375443935E-1,3.707952499E-1
5.309394432E0,1.873036623E-1,-6.091308594E-2,5.344686508E-1
5.319450432E0,-1.680415273E-1,-3.688402176E-1,7.148456573E-1
5.329506098E0,-2.500253022E-1,-3.760952950E-1,8.662824631E-1
5.339561348E0,-2.092774510E-1,-2.061188221E-1,8.433542252E-1
5.349616148E0,-3.406405449E-1,-1.806070805E-1,9.031667709E-1
5.360602432E0,-4.235067368E-1,-2.793054581E-1,1.030734062E0
5.370659432E0,-1.874824762E-1,-4.190385342E-1,1.106986046E0
5.380736432E0,-5.101621151E-2,-5.070142746E-1,1.156384468E0
5.390803432E0,1.232492924E-2,-5.895102024E-1,1.287282944E0
5.400865765E0,1.265982985E-1,-3.359892368E-1,1.184466362E0
5.410925765E0,3.616220355E-1,9.744095802E-2,7.984361649E-1
5.420985565E0,4.176000953E-1,2.999820709E-1,2.364196777E-1
5.431045065E0,1.814627647E-1,2.242460251E-1,-1.717252731E-1
5.441104065E0,-2.046704292E-3,3.802251816E-2,-2.243576050E-1
5.451162565E0,-9.019255638E-3,-1.053998470E-1,-2.759170532E-2
5.461220676E0,8.406430483E-2,-3.257999420E-1,3.024606705E-1
5.471278476E0,8.549755812E-2,-4.173619747E-1,4.268074036E-1
5.481335930E0,5.153226852E-2,-4.188573360E-1,3.726882935E-1
5.491392930E0,1.683461666E-2,-4.264392853E-1,3.288660049E-1
5.501449622E0,3.337204456E-3,-4.938139915E-1,2.143793106E-1
5.511506193E0,7.592779398E-2,-5.289504528E-1,6.803894043E-2
5.521596926E0,2.951770425E-1,-5.314610004E-1,-1.265163422E-1
5.531685488E0,4.371010661E-1,-5.695660114E-1,-1.531639099E-1
5.541771782E0,3.515714407E-1,-4.473955631E-1,-2.338104248E-1
5.551856226E0,1.992505789E-1,-3.008904457E-1,-1.887340546E-1
5.561939331E0,9.025764465E-2,-1.947801113E-1,-1.030387878E-1
5.572021131E0,-1.917403936E-2,-1.283879280E-1,7.657051086E-2
5.582101654E0,-1.333019733E-1,-2.053344250E-1,2.588644028E-1
5.592180926E0,-2.386387885E-1,-2.498576641E-1,4.786911011E-1
5.603105926E0,-3.372480869E-1,-2.152168751E-1,1.238879204E0
5.613386432E0,-2.570576072E-1,-1.783826351E-1,1.327537537E0
5.623470432E0,-7.732331753E-2,-1.781961918E-1,6.595144272E-1
5.633526432E0,9.990155697E-2,-7.094621658E-2,1.231794357E-1
5.643583432E0,1.454741061E-1,5.468130112E-2,6.004810333E-2
5.653639098E0,1.130157411E-1,9.061503410E-2,1.799507141E-1
5.663696348E0,1.103499532E-2,-3.186225891E-2,2.357673645E-2
5.673754348E0,-1.057935953E-1,-9.489440918E-2,-1.727952957E-1
5.683812181E0,-1.459777653E-1,-1.603820324E-1,-1.651296616E-1
5.693869752E0,-1.199467778E-1,-1.853199005E-1,-6.581592560E-2
5.703926502E0,-9.936419129E-2,-1.541910172E-1,-5.471706390E-2
5.713983168E0,-5.723887682E-2,-2.210428715E-1,-4.834461212E-2
5.724039968E0,-1.231792569E-2,-3.239154816E-1,-8.272933960E-2
5.734096695E0,9.383273125E-2,-2.819800377E-1,-1.128091812E-1
5.744153528E0,1.310091317E-1,-2.804470062E-1,-1.317577362E-1
5.754210297E0,1.023134291E-1,-3.067998886E-1,-1.585731506E-1
5.764303082E0,3.315335512E-2,-2.649538517E-1,-5.422496796E-2
5.774393215E0,-1.980638504E-2,-1.815469265E-1,4.009246826E-2
5.784481090E0,-5.069020391E-2,-1.299290657E-1,8.870410919E-2
5.794567090E0,-9.629479051E-2,-2.230696678E-1,1.729154587E-1
5.804651145E0,2.446901798E-2,-1.715207100E-1,2.932357788E-2
5.814733671E0,4.845398664E-2,-7.669949532E-2,-1.380786896E-1
5.824814721E0,8.250418305E-2,-1.855552197E-1,-2.207574844E-1
5.834894387E0,1.554980278E-1,-2.543425560E-1,-2.755784988E-1
5.845011296E0,1.459328830E-1,-1.683828831E-1,-2.357187271E-1
5.855125991E0,6.621098518E-2,-1.016812325E-1,-1.855192184E-1
5.865240199E0,-1.306605339E-2,3.387093544E-2,-1.443319321E-1
5.875351999E0,-6.687980890E-2,1.892137527E-2,-1.382484436E-1
5.885461499E0,-9.912386537E-2,-1.048920155E-1,-5.197620392E-2
5.895568906E0,-7.300752401E-2,-2.591083050E-1,4.016113281E-2
5.905674263E0,-5.595892668E-2,-3.614339828E-1,8.742713928E-2
5.915777780E0,1.045939028E-1,-4.833831787E-1,1.225929260E-1
5.925879546E0,2.154422402E-1,-4.264676571E-1,8.730888367E-2
5.935981312E0,1.998043358E-1,-2.755498886E-1,4.338264465E-3
5.946082978E0,5.625349283E-2,-9.042549133E-2,-3.693485260E-2
5.956184778E0,-4.652416706E-2,-1.192855835E-2,-6.754779816E-2
5.966286344E0,-1.188524663E-1,-1.448488235E-2,-7.975482941E-2
5.976387644E0,-1.188143790E-1,6.171464920E-3,-1.113748550E-1
5.986488777E0,-7.958468795E-2,-7.513380051E-2,-1.449985504E-1
5.996589877E0,-3.185942769E-2,-2.557070255E-1,-5.844306946E-2
6.006710077E0,-2.027124166E-3,-3.815188408E-1,-3.579521179E-2
6.016830210E0,3.270298243E-3,-2.519893646E-1,-5.809783936E-2
6.026950243E0,1.416295767E-3,-1.583933830E-1,-6.604003906E-2
6.037070309E0,-1.936241984E-2,-1.853260994E-1,-5.510616302E-2
6.047190409E0,-5.389401317E-2,-2.101809978E-1,-3.951263428E-2
6.057310509E0,-5.650296807E-2,-1.610078812E-1,-7.251739502E-3
6.067413775E0,-2.061748505E-2,-1.345460415E-1,3.067016602E-3
6.077517275E0,7.798841596E-2,-1.578176022E-1,6.542587280E-2
6.087647241E0,1.631817222E-1,-9.706854820E-2,-2.260208130E-3
6.097777141E0,1.125112474E-1,-4.987192154E-2,-1.159839630E-1
6.107907074E0,3.712365031E-2,-3.597259521E-2,-1.338319778E-1
6.118036840E0,-2.132400870E-2,-1.360344887E-2,-4.582309723E-2
6.128166573E0,9.577035904E-3,-2.214956284E-2,3.513622284E-2
6.138296339E0,1.587927341E-3,-5.473017693E-2,2.031898499E-2
6.148397972E0,-5.102109909E-2,-1.713521481E-1,-2.573490143E-2
6.158499138E0,3.063139319E-2,-2.138764858E-1,-1.677131653E-2
6.168598638E0,1.072570682E-1,-1.553452015E-1,-4.115200043E-2
6.178698171E0,7.299041748E-2,-3.394389153E-2,-8.205699921E-2
6.188797737E0,1.629200578E-2,2.842450142E-2,-9.632015228E-2
6.198897270E0,-2.682715654E-2,-2.328896523E-2,-8.393669128E-2
6.208996803E0,-1.943150163E-2,-1.533036232E-1,-1.216087341E-1
6.219096403E0,-9.652882814E-3,-1.602551937E-1,-1.134719849E-1
6.229196036E0,-3.689619899E-2,-1.516783237E-1,-9.293079376E-2
6.239295602E0,-8.370143175E-2,-3.313827515E-1,-8.884429932E-2
6.249413435E0,-5.944213271E-2,-4.266865253E-1,3.119468689E-2
6.259531135E0,-1.714855433E-3,-3.897976875E-1,8.567810059E-3
6.269648701E0,5.958014727E-2,-2.101798058E-1,-9.979248047E-2
6.279766301E0,1.005609334E-1,-1.141071320E-3,-9.542369843E-2
6.289883867E0,1.065486968E-1,2.368855476E-2,7.239341736E-3
6.300001500E0,1.322772503E-1,-2.563953400E-2,6.213569641E-2
6.310100066E0,1.993391514E-1,-6.192255020E-2,1.692504883E-1
6.320198999E0,2.342503369E-1,-6.425809860E-2,8.890056610E-2
6.330324399E0,1.950367093E-1,-6.415128708E-2,4.210224152E-1
6.340449732E0,1.005215049E-1,2.589917183E-2,5.076932907E-1
6.350575065E0,1.319223642E-2,1.730728149E-1,1.061735153E-1
6.360700398E0,-3.100067377E-2,2.591276169E-1,-1.017675400E0
6.370825564E0,-1.553076208E-1,2.169399261E-1,-1.262989044E0
6.380950530E0,-3.645809293E-1,-4.175567627E-2,-1.088212967E0
6.391049063E0,-3.878365159E-1,-2.240235806E-1,-9.322223663E-1
6.401147663E0,-8.554098010E-2,-2.470901012E-1,4.246311188E-1
6.411246296E0,2.072443664E-1,-2.626607418E-1,1.812055588E0
6.421345062E0,2.186173499E-1,-3.411369324E-1,8.527622223E-1
6.431443828E0,7.176232338E-2,-4.148118496E-1,-4.166603088E-3
6.441542494E0,-2.337574959E-2,-3.871638775E-1,-3.658103943E-2
6.451641060E0,-3.100246191E-2,-2.347350121E-1,-2.230281830E-1
6.461739560E0,-3.056618571E-2,-1.653194427E-2,-4.395675659E-1
6.471838026E0,-3.851139545E-2,6.833004951E-2,-2.096233368E-1
6.481936426E0,-4.527771473E-2,-4.487371445E-2,8.627319336E-2
6.492052026E0,-3.505939245E-2,-1.655278206E-1,1.779365540E-1
6.502167526E0,1.897037029E-3,-2.216227055E-1,3.409290314E-2
6.512283126E0,4.003828764E-2,-1.900568008E-1,-6.630134583E-2
6.522398659E0,4.743313789E-2,-1.292760372E-1,-9.638977051E-2
6.532514125E0,2.420166135E-2,-5.735087395E-2,-1.004486084E-1
6.542629591E0,-3.521800041E-3,-5.304479599E-2,-4.403018951E-2
6.552727157E0,-2.898335457E-3,-8.719134331E-2,-2.033329010E-2
6.562824657E0,4.673659801E-3,-1.009273529E-1,-8.159637451E-3
6.572948957E0,-4.614740610E-3,-1.145503521E-1,-2.706718445E-2
6.583073223E0,-4.462629557E-3,-1.268765926E-1,-5.353355408E-2
6.593197456E0,-1.139521599E-2,-9.430050850E-2,3.589630127E-3
6.603321456E0,1.240617037E-2,-1.025059223E-1,5.830669403E-2
6.613445389E0,1.745954156E-2,-9.873294830E-2,-1.647186279E-1
6.623568889E0,2.914023399E-2,-1.023147106E-1,-5.029773712E-2
6.633665822E0,2.346232533E-2,-1.331222057E-1,7.581043243E-2
6.643762588E0,6.634294987E-4,-1.290383339E-1,-1.336069107E-1
6.653859121E0,-3.409370780E-2,-1.004176140E-1,-5.790805817E-2
6.663955521E0,-4.761120677E-2,-1.126277447E-1,-7.708072662E-2
6.674051954E0,-2.145743370E-2,-1.376559734E-1,-6.933784485E-2
6.684148287E0,6.991019845E-2,-1.535811424E-1,4.356193542E-2
6.694244420E0,8.264034986E-2,-1.431925297E-1,3.589916229E-2
6.704340420E0,5.360913277E-2,-1.212360859E-1,-3.503608704E-2
6.714436320E0,-5.340278149E-3,-1.024396420E-1,-1.230440140E-1
6.724532186E0,-1.843732595E-2,-1.226375103E-1,-4.444980621E-2
6.734648919E0,-4.568192363E-2,-1.091530323E-1,1.501083374E-3
6.744765785E0,-1.333191991E-2,-1.063396931E-1,-1.673126221E-2
6.754882718E0,2.580136061E-2,-8.242058754E-2,-2.791595459E-2
6.764999818E0,3.572356701E-2,-4.748129845E-2,-2.743911743E-2
6.775117018E0,1.191627979E-2,-7.090497017E-2,-5.120658875E-2
6.785234284E0,2.625942230E-3,-6.827020645E-2,-3.198242188E-2
6.795334717E0,-2.337583899E-2,-1.253726482E-1,-6.060123444E-2
6.805435283E0,-1.464277506E-3,-1.529834270E-1,-4.586410522E-2
6.815562483E0,-2.243846655E-2,-1.707985401E-1,-4.063510895E-2
6.825689749E0,-1.914840937E-2,-1.599171162E-1,-2.824687958E-2
6.835817082E0,-1.841878891E-2,-1.399197578E-1,-3.912639618E-2
6.845944348E0,-5.848139524E-3,-1.367125511E-1,-4.521846771E-2
6.856071148E0,6.394386292E-3,-1.500740051E-1,-2.010536194E-2
6.866198014E0,4.024893045E-3,-1.630687714E-1,-9.219169617E-3
6.876298080E0,1.679718494E-3,-1.257410049E-1,-2.465152740E-2
6.886398113E0,-1.970034838E-2,-1.033883095E-1,-2.593612671E-2
6.896498313E0,1.640763879E-2,-6.756162643E-2,-3.232002258E-2
6.906598979E0,4.596233368E-3,-4.186415672E-2,-6.762504578E-2
6.916699779E0,7.222026587E-3,-9.096384048E-3,2.631378174E-2
6.926800379E0,2.957016230E-3,-3.411149979E-2,-1.394557953E-2
6.936900845E0,8.358836174E-3,-4.266738892E-2,-6.868171692E-2
6.947001278E0,-2.968072891E-3,-6.570768356E-2,-6.120872498E-2
6.957102378E0,1.848551631E-2,-7.200646400E-2,1.354217529E-3
6.967203478E0,8.221894503E-3,-6.670355797E-2,1.832103729E-2
6.977324878E0,-2.442330122E-3,-7.670044899E-2,-2.248191833E-2
6.987446311E0,9.390860796E-3,-8.927845955E-2,-3.944873810E-2
6.997567911E0,3.391727805E-2,-8.658981323E-2,-2.979278564E-2
7.007689611E0,1.974976063E-2,-8.841776848E-2,-2.481460571E-2
7.017811477E0,5.018115044E-4,-1.023366451E-1,-2.704715729E-2
7.027933843E0,-6.745606661E-3,-8.504605293E-2,-3.883075714E-2
7.038035409E0,1.707163453E-2,-7.705497742E-2,-3.854084015E-2
7.048137042E0,2.134957910E-2,-8.783388138E-2,-1.176452637E-2
7.058265608E0,1.809102297E-2,-1.006953716E-1,-1.599121094E-2
7.068394274E0,-1.629596949E-2,-9.896254539E-2,-3.689479828E-2
7.078522974E0,-9.436219931E-3,-8.513021469E-2,-2.425479889E-2
7.088651774E0,4.871934652E-3,-7.613325119E-2,-2.361488342E-2
7.098780307E0,-7.173001766E-3,-6.742167473E-2,-3.265190125E-2
7.108908907E0,-1.195383072E-2,-6.852483749E-2,-3.459262848E-2
7.119010907E0,-1.434388757E-2,-6.727075577E-2,-1.499652863E-2
7.129113073E0,7.332623005E-3,-8.047246933E-2,-5.015373230E-3
7.139215273E0,9.979635477E-3,-9.376859665E-2,-4.649162292E-3
7.149317639E0,7.639944553E-3,-1.000483036E-1,-9.120941162E-3
7.159420105E0,-4.497289658E-3,-8.233022690E-2,-2.793025970E-2
7.169522605E0,7.474511862E-3,-5.753016472E-2,-2.523231506E-2
7.179625138E0,7.564812899E-3,-5.676984787E-2,-1.778602600E-2
7.189727804E0,5.659461021E-4,-5.651021004E-2,-2.488327026E-2
7.199831237E0,1.056268811E-2,-4.935002327E-2,-2.011966705E-2
7.209934470E0,1.085376740E-2,-4.228973389E-2,-4.172325134E-2
7.220054736E0,-3.313064575E-3,-4.685449600E-2,-1.771068573E-2
7.230175402E0,6.289929152E-3,-5.361366272E-2,-1.277351379E-2
7.240296402E0,-1.035821438E-2,-6.518411636E-2,-2.460861206E-2
7.250417602E0,-7.899940014E-3,-8.869838715E-2,-3.164291382E-2
7.260539135E0,1.143315434E-2,-7.873201370E-2,-3.630065918E-2
7.270660768E0,9.236484766E-3,-6.382203102E-2,-3.611564636E-2
7.280762134E0,1.167601347E-2,-7.770323753E-2,-2.637004852E-2
7.290863600E0,4.534184933E-3,-7.716464996E-2,-3.096961975E-2
7.300991633E0,2.142852545E-2,-8.138084412E-2,-2.359008789E-2
7.311119599E0,9.691029787E-3,-8.561873436E-2,-1.857757568E-3
7.321247765E0,1.208814979E-2,-9.455060959E-2,-2.317714691E-2
7.331375365E0,2.181804180E-2,-6.264615059E-2,-2.051353455E-2
7.341503031E0,1.206469536E-2,-6.210470200E-2,-3.228569031E-2
7.351630564E0,4.591375589E-3,-5.675745010E-2,-4.165363312E-2
7.361731197E0,-5.204588175E-3,-5.628418922E-2,-4.147624969E-2
7.371831763E0,-5.849003792E-4,-5.340695381E-2,-1.735591888E-2
7.381932296E0,2.317062020E-2,-2.664494514E-2,-3.874683380E-2
7.392032829E0,2.533769608E-2,-4.310274124E-2,-1.947689056E-2
7.402133362E0,-1.308590174E-2,-5.515146255E-2,4.442214966E-3
7.412233862E0,-1.504245400E-2,-5.790925026E-2,-1.725196838E-2
7.422334328E0,-3.160732985E-2,-6.318116188E-2,-1.264190674E-2
7.432434528E0,-2.714455128E-3,-6.317687035E-2,-2.701282501E-2
7.442534694E0,-1.698696613E-2,-4.807567596E-2,-2.915000916E-2
7.452634594E0,-1.924142241E-2,-5.667996407E-2,-2.881145477E-2
7.462751660E0,-2.205908298E-3,-5.611777306E-2,1.686573029E-2
7.472868693E0,1.225793362E-2,-5.840086937E-2,6.478500366E-2
7.482985659E0,-8.937567472E-3,-4.458665848E-2,-1.556901932E-1
7.493102559E0,1.213908195E-2,-5.947279930E-2,-2.724647522E-3
7.503218625E0,3.720182180E-2,-7.518458366E-2,9.491539001E-2
7.513334658E0,6.601899862E-3,-8.461499214E-2,-1.357450485E-1
7.523433591E0,-5.061784387E-2,-6.874942780E-2,-1.995086670E-3
7.533532357E0,-6.224370003E-2,-8.897924423E-2,-5.411911011E-2
7.544808432E0,4.462748766E-3,-8.880305290E-2,-3.633785248E-2
7.554859432E0,9.336400032E-2,-7.989454269E-2,7.688522339E-2
7.564912432E0,1.083717346E-1,-5.706143379E-2,2.628707886E-2
7.574964432E0,5.261811614E-2,-1.282572746E-2,-4.201316833E-2
7.585016765E0,2.446472645E-4,-1.441740990E-2,-9.610652924E-2
7.595069765E0,-3.956794739E-2,-2.661061287E-2,1.940727234E-3
7.605123165E0,-4.357326031E-2,-3.686046600E-2,3.842926025E-2
7.615176165E0,-1.422679424E-2,-4.963302612E-2,-1.734733582E-3
7.625228593E0,2.910670638E-2,-2.985095978E-2,-2.306938171E-2
7.635280968E0,5.323702097E-2,3.640174866E-3,-2.787590027E-2
7.645333190E0,1.046469808E-2,-1.836681366E-2,-1.368618011E-2
7.655385290E0,1.562675834E-2,-2.343416214E-2,-2.098274231E-2
7.665437290E0,-1.996243000E-2,-6.873607635E-2,-2.811145782E-2
7.675489206E0,-2.929347754E-2,-1.161034107E-1,-1.596927643E-2
7.685541052E0,-4.331180453E-2,-1.415066719E-1,-3.241252899E-2
7.695592837E0,-4.997506738E-2,-1.237637997E-1,-8.143424988E-3
7.705678237E0,-3.511413932E-2,-9.871149063E-2,-4.607772827E-2
7.715761362E0,2.046644688E-2,-1.046819687E-1,-4.566955566E-2
7.725842597E0,1.572743058E-2,-1.030201912E-1,-1.874732971E-2
7.735922097E0,3.741356730E-2,-1.084833145E-1,5.797386169E-3
7.746000202E0,1.365411282E-2,-1.021227837E-1,-8.017539978E-3
7.756077102E0,-1.473057270E-2,-7.468008995E-2,-1.482105255E-2
7.766152911E0,-1.824498177E-4,-2.843594551E-2,-1.695442200E-2
7.776227547E0,1.669034362E-2,-4.130840302E-3,-2.401256561E-2
7.787449432E0,2.377900481E-2,1.783943176E-2,6.951427460E-2
7.797498432E0,1.184621453E-2,6.333589554E-3,-2.848339081E-2
7.807553432E0,-7.074534893E-3,-5.342364311E-2,-6.197738647E-2
7.817607432E0,2.150747180E-2,-5.306673050E-2,-5.466270447E-2
7.827660098E0,3.774330020E-2,-4.799365997E-2,1.010417938E-2
7.837712098E0,1.753160357E-2,-3.396606445E-2,1.720905304E-2
7.847764698E0,2.619621158E-2,-3.036260605E-2,-2.866363525E-2
7.857817698E0,2.401354909E-2,-4.611802101E-2,-2.677154541E-2
7.867870412E0,2.236211300E-2,-7.323718071E-2,6.438255310E-3
7.877923537E0,-1.325041056E-3,-5.936121941E-2,-2.247524261E-2
7.887976870E0,-1.823934913E-2,-6.696987152E-2,-8.255004883E-3
7.898030270E0,-2.836838365E-2,-7.459402084E-2,-3.472423553E-2
7.908083724E0,-2.619683743E-3,-6.280374527E-2,-3.715991974E-2
7.918137224E0,3.248450160E-2,-4.565453529E-2,-1.304626465E-2
7.928190839E0,5.083367229E-2,-4.971814156E-2,-5.573272705E-3
7.938244481E0,2.619522810E-2,-7.032370567E-2,-2.436447144E-2
7.948339814E0,9.137004614E-3,-7.165360451E-2,-7.214546204E-3
7.958432626E0,-1.017636061E-2,-6.087541580E-2,-2.114677429E-2
7.968523155E0,-1.724001765E-2,-4.064035416E-2,-4.231452942E-2
7.978611710E0,-1.703399420E-2,-6.376910210E-2,-4.203414917E-2
7.988698446E0,9.588867426E-3,-9.397077560E-2,-1.059436798E-2
7.998783496E0,3.359118104E-2,-9.065437317E-2,-3.086090088E-3
8.008866972E0,9.680926800E-3,-9.933900833E-2,-4.107761383E-2
8.018948881E0,1.915836334E-2,-9.838700294E-2,-2.397537231E-2
8.029064967E0,2.385103703E-2,-6.847214699E-2,2.787590027E-3
8.039178383E0,1.913908124E-2,-6.530141830E-2,5.454063416E-3
8.049289263E0,1.442009211E-2,-4.352974892E-2,-1.651763916E-3
8.059398339E0,-2.615216374E-2,-4.625821114E-2,-3.290081024E-2
8.069505264E0,2.664625645E-3,-7.546710968E-2,-2.349758148E-2
8.079610728E0,-1.174780726E-2,-2.779793739E-2,-1.878452301E-2
8.089714452E0,1.705306768E-2,-3.485131264E-2,-1.874160767E-2
8.099816585E0,7.547825575E-3,-3.951549530E-2,-1.630496979E-2
8.109918618E0,5.200475454E-3,-2.755618095E-2,-2.349376678E-2
8.120020784E0,1.731267571E-2,-3.005743027E-2,-2.832603455E-2
8.130123517E0,-4.197120667E-3,-6.142377853E-2,-1.883792877E-2
8.140226517E0,1.502624154E-2,-5.888390541E-2,-1.639366150E-2
8.150329617E0,3.305017948E-3,-6.587171555E-2,-1.394176483E-2
8.160433150E0,3.667920828E-3,-7.753610611E-2,-1.874923706E-3
8.170536916E0,1.828655601E-2,-7.722830772E-2,-8.958816528E-3
8.180641149E0,2.101495862E-2,-7.701873779E-2,-8.898735046E-3
8.190762815E0,1.377463341E-2,-1.006491184E-1,-2.554416656E-2
8.200884481E0,1.363417506E-2,-9.043455124E-2,-3.728199005E-2
8.211006581E0,-8.400827646E-3,-8.223271370E-2,-6.562995911E-2
8.221128614E0,-6.416290998E-3,-6.900072098E-2,-2.925109863E-2
8.231250914E0,2.190399170E-2,-7.048034668E-2,-3.130149841E-2
8.241373547E0,2.885192633E-2,-6.985354424E-2,-2.149200439E-2
8.251475347E0,1.942518353E-2,-7.446265221E-2,-1.664638519E-2
8.261577447E0,2.203851938E-2,-6.737613678E-2,-3.584289551E-2
8.271706047E0,1.251885295E-2,-7.694292068E-2,-2.626419067E-2
8.281834580E0,-2.057164907E-3,-4.534387589E-2,-2.129840851E-2
8.291963480E0,-9.333133698E-3,-6.601428986E-2,-2.098178864E-2
8.302092380E0,-1.178038120E-2,-7.486009598E-2,-2.071857452E-2
8.312221346E0,-1.151141524E-2,-7.920193672E-2,5.604457855E-2
8.322350546E0,1.258835196E-2,-6.502056122E-2,5.357837677E-2
8.332452679E0,-6.412416697E-3,-4.635357857E-2,-1.644735336E-1
8.342555312E0,2.155146003E-2,-3.483724594E-2,5.077457428E-2
8.352657978E0,2.435037494E-2,-7.719707489E-2,3.101348877E-2
8.362760344E0,1.274770498E-2,-7.503914833E-2,-9.922599792E-2
8.372862844E0,-2.047178149E-2,-6.440854073E-2,-1.552581787E-3
8.382965277E0,-6.065279245E-2,-6.365251541E-2,-6.345653534E-2
8.393067677E0,1.395052671E-2,-7.874751091E-2,-3.404998779E-2
8.403170010E0,9.113535285E-2,-6.865215302E-2,2.367019653E-2
8.413272443E0,7.024917006E-2,-3.013920784E-2,3.014469147E-2
8.423374776E0,3.358998895E-2,-1.317620277E-2,-6.482982635E-2
8.433497409E0,-2.071157098E-2,3.141641617E-2,-1.067333221E-1
8.443620375E0,-3.634440899E-2,-2.394342422E-2,1.522064209E-2
8.453743408E0,-3.310403228E-2,-6.050133705E-2,4.693126678E-2
8.463866108E0,-8.245378733E-3,-7.324337959E-2,2.113437653E-2
8.473988708E0,4.298385978E-2,-5.825901031E-2,9.344100952E-3
8.484110641E0,5.338102579E-2,-2.779245377E-2,-1.486492157E-2
8.494215407E0,4.705625772E-2,-1.958847046E-2,-2.257156372E-2
8.504320207E0,2.366742492E-2,-3.281378746E-2,-1.106929779E-2
8.514451107E0,-3.101339936E-2,-5.974912643E-2,-2.566337585E-2
8.524581940E0,-3.993213177E-2,-1.076130867E-1,-3.286457062E-2
8.534712540E0,-2.246615291E-2,-1.336534023E-1,-2.799987793E-2
8.544843073E0,-2.899280190E-2,-1.140215397E-1,-2.306842804E-2
8.554973406E0,-2.854841948E-2,-1.038506031E-1,-1.569271088E-2
8.565103839E0,1.238515973E-2,-1.056435108E-1,1.271247864E-3
8.575207605E0,1.973572373E-2,-9.067344666E-2,-8.098602295E-3
8.585312505E0,1.720824838E-2,-5.652737617E-2,-7.869720459E-3
8.595416871E0,7.465511560E-3,-7.053852081E-2,6.628990173E-3
8.605521271E0,4.831582308E-3,-6.080794334E-2,1.148128510E-2
8.615625571E0,-7.405370474E-3,-3.007006645E-2,-2.216434479E-2
8.625729704E0,1.147964597E-2,-1.396179199E-2,-3.435611725E-2
8.635833737E0,1.841631532E-2,4.829406738E-3,3.974628448E-2
8.645937270E0,4.458853602E-2,-7.603406906E-3,-5.902290344E-3
8.656041403E0,1.379361749E-2,-5.362439156E-2,-3.004646301E-2
8.666145403E0,-2.916663885E-3,-4.208207130E-2,-5.653667450E-2
8.676266169E0,1.412570477E-3,-1.888895035E-2,1.504135132E-2
8.686386702E0,2.669456601E-2,-3.763437271E-3,-7.042884827E-3
8.696507202E0,9.218007326E-3,-2.779412270E-2,-2.226066589E-2
8.706627768E0,3.796902299E-2,-3.982162476E-2,-1.115798950E-2
8.716748268E0,3.115704656E-2,-6.297540665E-2,-2.132034302E-2
8.726868801E0,1.708206534E-2,-4.724931717E-2,-3.845787048E-2
8.736968667E0,2.113580704E-4,-3.590774536E-2,-6.022262573E-2
8.747068133E0,-7.324218750E-3,-2.447319031E-2,-6.518745422E-2
8.757194133E0,3.046345711E-2,-6.536269188E-2,-2.213764191E-2
8.767320033E0,2.257898450E-2,-7.705926895E-2,-1.961708069E-2
8.777445999E0,2.433663607E-2,-9.809184074E-2,-7.436752319E-3
8.787572099E0,-2.793550491E-3,-8.743596077E-2,-1.420593262E-2
8.797697732E0,-1.745432615E-2,-8.608317375E-2,-2.568340302E-2
8.807823398E0,-7.384717464E-4,-7.763457298E-2,-3.686904907E-3
8.817922531E0,4.056304693E-3,-7.672262192E-2,-3.209304810E-2
8.828021864E0,-3.239512444E-3,-8.295750618E-2,-3.893470764E-2
8.838120964E0,1.222997904E-3,-8.187317848E-2,-2.417182922E-2
8.848219764E0,8.054971695E-3,-7.842087746E-2,-2.856922150E-2
8.858318664E0,3.052592278E-3,-7.503628731E-2,-9.056091309E-3
8.868416864E0,1.005357504E-2,-6.700873375E-2,-1.593112946E-2
8.878515097E0,7.723480463E-3,-5.930161476E-2,-8.563995361E-3
8.888612163E0,1.044905186E-2,-5.918693542E-2,-8.537292480E-3
8.898709429E0,-3.540337086E-3,-4.492378235E-2,-1.407623291E-3
8.908806629E0,1.136487722E-2,-4.777336121E-2,-1.356220245E-2
8.918920829E0,-4.989057779E-3,-5.324983597E-2,-1.852989197E-3
8.929035095E0,1.923084259E-2,-3.260064125E-2,-4.576683044E-3
8.939149361E0,3.303289413E-4,-2.159190178E-2,-1.450538635E-2
8.949263594E0,-1.391002536E-2,-2.468419075E-2,-2.433586121E-2
8.959377327E0,-1.603612304E-2,-3.233122826E-2,-1.732921600E-2
8.969491027E0,5.608618259E-3,-5.433678627E-2,6.446838379E-3
8.979587860E0,8.579194546E-4,-4.273867607E-2,-1.284122467E-2
8.989684460E0,9.740293026E-4,-6.956958771E-2,-2.020359039E-2
8.999808060E0,1.312953234E-2,-6.032490730E-2,-8.357048035E-3
9.009931560E0,8.376836777E-3,-6.527709961E-2,1.073646545E-2
9.020055893E0,2.504646778E-2,-6.084346771E-2,-1.811695099E-2
9.030180193E0,5.657315254E-3,-7.796955109E-2,-4.457187653E-2
9.040304326E0,1.245135069E-2,-6.857395172E-2,-3.983116150E-2
9.050428392E0,1.181647182E-2,-8.291602135E-2,-1.825046539E-2
9.060525592E0,1.576858759E-2,-8.043622971E-2,-2.057933807E-2
9.070622692E0,2.493992448E-2,-6.861066818E-2,-2.061462402E-2
9.080719458E0,2.230125666E-2,-7.163882256E-2,-2.082824707E-2
9.090816091E0,3.413251042E-2,-7.273125648E-2,-4.515075684E-2
9.100912824E0,2.436688542E-2,-6.651043892E-2,-4.309082031E-2
9.111009390E0,1.214274764E-2,-6.186032295E-2,-3.355312347E-2
9.121105656E0,1.426744461E-2,-4.471015930E-2,-4.058551788E-2
9.131201589E0,-1.701816916E-2,-6.813001633E-2,-6.874084473E-3
9.141297589E0,6.808727980E-3,-6.298017502E-2,6.987380981E-2
9.151393422E0,-1.483452320E-2,-6.812763214E-2,4.580783844E-2
9.161506355E0,1.644381881E-2,-4.758000374E-2,-1.628494263E-1
9.171619521E0,2.244395018E-2,-8.226943016E-2,5.934715271E-2
9.181732721E0,3.202253580E-2,-8.190846443E-2,1.553153992E-2
9.191845887E0,-8.767843246E-4,-4.169130325E-2,-1.554994583E-1
9.201958953E0,-2.928003669E-2,-4.779505730E-2,-1.711368561E-2
9.212071953E0,-5.511271954E-2,-8.295488358E-2,-5.747127533E-2
9.222167953E0,-4.828751087E-3,-1.125535965E-1,-1.373767853E-2
9.232263686E0,7.916566730E-2,-8.591818810E-2,1.758575439E-2
9.243543432E0,8.170130849E-2,-3.092646599E-2,1.201915741E-2
9.253589432E0,2.619126439E-2,1.438069344E-2,-5.914783478E-2
9.263659432E0,-1.608434319E-2,4.190039635E-2,-1.203088760E-1
9.273717932E0,-2.423703671E-2,1.716303825E-2,-2.727413177E-2
9.283774265E0,-2.783912420E-2,-4.855823517E-2,1.862812042E-2
9.293829015E0,-5.213737488E-3,-7.129096985E-2,4.534721375E-2
9.303883415E0,1.020079851E-2,-4.719090462E-2,2.381038666E-2
9.313937581E0,2.552321553E-2,-3.188800812E-2,-1.983833313E-2
9.323990723E0,3.135314584E-2,-2.251172066E-2,-4.473686218E-2
9.334043723E0,1.039576530E-2,-4.402017593E-2,-3.122425079E-2
9.344096723E0,-1.046240330E-3,-6.693196297E-2,-2.693748474E-2
9.354149423E0,-1.256933808E-2,-9.385538101E-2,-1.519107819E-2
9.364202059E0,-4.072383046E-2,-9.877133369E-2,-3.441238403E-2
9.374254392E0,-1.856303215E-2,-9.906888008E-2,-2.257251740E-2
9.384306776E0,-2.556711435E-2,-8.757257462E-2,1.195907593E-3
9.394359347E0,8.669793606E-4,-9.289336205E-2,1.058101654E-2
9.404446280E0,5.583643913E-3,-1.053051949E-1,8.535385132E-4
9.414531405E0,2.930083871E-2,-8.880591393E-2,-2.795982361E-2
9.424614757E0,2.425053716E-2,-9.385728836E-2,-2.085781097E-2
9.434696645E0,1.663205028E-2,-8.950424194E-2,-6.628036499E-3
9.444777171E0,4.520982504E-3,-5.923914909E-2,2.584457397E-4
9.454856471E0,1.882743835E-2,-2.673792839E-2,-3.122043610E-2
9.464934756E0,-1.004910469E-2,-1.319193840E-2,-2.431964874E-2
9.475011846E0,1.605850458E-2,-2.079987526E-2,-2.911567688E-3
9.486236432E0,2.561330795E-2,-7.395553589E-2,-1.026248932E-2
9.496290432E0,1.641413569E-2,-4.738259315E-2,-7.005023956E-2
9.506350432E0,2.815070748E-2,-4.742717743E-2,2.810573578E-2
9.516408432E0,3.669169545E-2,-4.348564148E-2,2.785205841E-2
9.526465432E0,1.147058606E-2,-2.651381493E-2,-6.144428253E-2
9.536521682E0,9.002655745E-3,-4.080009460E-2,-3.352165222E-2
9.546577082E0,9.680718184E-3,-3.494787216E-2,1.897811890E-3
9.556631248E0,-2.592119575E-2,-4.493212700E-2,-1.980495453E-2
9.566684533E0,9.908497334E-3,-6.659889221E-2,-3.181457520E-2
9.576737658E0,2.350389957E-3,-7.405495644E-2,-6.062602997E-2
9.586791102E0,2.594631910E-2,-6.920838356E-2,-4.383087158E-2
9.596844702E0,5.187433958E-2,-6.180691719E-2,-7.824897766E-3
9.606898520E0,1.045468450E-2,-8.999633789E-2,-7.605552673E-3
9.616952603E0,-9.255349636E-3,-9.379720688E-2,-2.399635315E-2
9.627006833E0,-2.149164677E-2,-8.518314362E-2,-2.587890625E-2
9.637061475E0,-1.164695621E-2,-9.566712379E-2,-1.818561554E-2
9.647161475E0,5.518913269E-3,-7.992506027E-2,-2.969169617E-2
9.657258725E0,2.467930317E-2,-8.103132248E-2,-1.726818085E-2
9.667353783E0,2.466127276E-2,-8.682560921E-2,-2.875328064E-2
9.677446838E0,1.022461057E-2,-8.768343925E-2,-2.581691742E-2
9.687537890E0,2.798676491E-3,-9.341716766E-2,-3.726959229E-2
9.697627240E0,1.400709152E-4,-8.984494209E-2,-2.966213226E-2
9.707714906E0,4.751235247E-3,-9.354591370E-2,-2.448272705E-2
9.717800906E0,2.405503392E-2,-5.665040016E-2,-3.372097015E-2
9.727920036E0,1.215580106E-2,-5.351901054E-2,-2.388763428E-2
9.738036411E0,1.705014706E-2,-5.303978920E-2,-1.175403595E-2
9.748150211E0,-1.397773623E-2,-3.128290176E-2,-1.886653900E-2
9.758261634E0,2.811700106E-3,-1.225757599E-2,-2.154350281E-3
9.768370819E0,2.863228321E-3,-2.207088470E-2,-2.139282227E-2
9.778477961E0,1.487234235E-2,-3.899836540E-2,-3.342342377E-2
9.788583167E0,2.924203873E-2,-3.418946266E-2,1.207160950E-2
9.798686567E0,2.776771784E-3,-6.051421165E-2,1.115798950E-4
9.808789633E0,-6.774336100E-3,-6.062340736E-2,-3.344726562E-2
9.818892699E0,1.732784510E-2,-7.274031639E-2,-1.435089111E-2
9.828995832E0,2.203428745E-2,-7.258725166E-2,-2.147769928E-2
9.839099165E0,2.426064014E-2,-6.969237328E-2,-2.847671509E-2
9.849202631E0,2.559483051E-3,-9.299778938E-2,-4.261112213E-2
9.859306331E0,3.343474865E-2,-8.747720718E-2,-3.276538849E-2
9.869410364E0,1.408538222E-2,-7.711625099E-2,-3.008842468E-2
9.879514497E0,2.100867033E-2,-6.215262413E-2,-1.071357727E-2
9.889638897E0,4.079848528E-3,-6.678438187E-2,-5.863189697E-3
9.899763363E0,1.346987486E-2,-6.948232651E-2,-2.750873566E-2
9.909887829E0,8.520215750E-3,-6.748199463E-2,-4.200553894E-2
9.920012229E0,2.279064059E-2,-3.641581535E-2,-5.399417877E-2
9.930136562E0,-1.304355264E-2,-5.510067940E-2,-3.946685791E-2
9.940260828E0,-1.040866971E-2,-6.850743294E-2,-1.280307770E-2
9.950362328E0,1.613813639E-2,-8.923292160E-2,6.169700623E-2
9.960463728E0,1.792341471E-3,-4.836082458E-2,1.902580261E-3
9.970591528E0,2.626225352E-2,-2.991318703E-2,-1.492033005E-1
9.980719228E0,8.451968431E-3,-4.563236237E-2,9.447288513E-2
9.990846894E0,-9.748637676E-4,-7.215571404E-2,-2.210617065E-3
1.000097449E1,-4.046389461E-2,-3.185248375E-2,-1.444988251E-1
1.001110203E1,-5.421176553E-2,-3.946042061E-2,3.766059875E-3
1.002122966E1,-3.885522485E-2,-1.167056561E-1,9.231567383E-3
1.003133083E1,4.539141059E-2,-1.195263863E-1,1.479339600E-2
1.004143209E1,1.156468391E-1,-8.984112740E-2,-1.239776611E-5
1.005156026E1,6.159240007E-2,-3.137993813E-2,8.291244507E-3
1.006168846E1,1.313388348E-2,-4.580497742E-3,-3.390407562E-2
1.007181672E1,-3.118804097E-2,1.831626892E-2,-8.304214478E-2
1.008194506E1,-6.292808056E-2,-4.041433334E-3,-6.786346436E-3
1.009207346E1,-2.785143256E-2,-4.362607002E-2,1.269435883E-2
1.010220196E1,2.363315225E-2,-6.615471840E-2,-1.226425171E-3
1.011233056E1,5.574220419E-2,-3.954076767E-2,3.618240356E-3
1.012245912E1,5.899256468E-2,-3.094387054E-2,-8.730888367E-3
1.013431643E1,2.611857653E-2,-5.187916756E-2,-9.380340576E-3
1.014437243E1,-7.167786360E-3,-4.664778709E-2,-1.486110687E-2
1.015442543E1,-4.052186012E-2,-7.905673981E-2,-4.165363312E-2
1.016447843E1,-5.237999558E-2,-1.034047604E-1,-2.264785767E-2
1.017453143E1,-3.072074056E-2,-1.130492687E-1,-2.746391296E-2
1.018458468E1,-6.639331579E-3,-9.399414062E-2,-1.792812347E-2
1.019463828E1,1.524370909E-2,-8.706283569E-2,-3.478717804E-2
1.020469195E1,-1.362532377E-3,-9.433436394E-2,-2.046012878E-2
1.021486038E1,3.316283226E-3,-9.407973289E-2,-2.276134491E-2
1.022501425E1,1.766023040E-2,-8.651947975E-2,-1.784038544E-2
1.023515725E1,2.231946588E-2,-7.920718193E-2,-1.060676575E-2
1.024529185E1,1.026105881E-2,-5.337119102E-2,-1.200675964E-3
1.025541930E1,-9.010076523E-3,-4.679059982E-2,-2.534961700E-2
1.026554080E1,1.252660155E-2,-1.881623268E-2,-3.997802734E-2
1.027565719E1,3.864040971E-2,-2.393102646E-2,-2.571678162E-2
1.028576933E1,2.193817496E-2,-1.434469223E-2,6.198883057E-4
1.029691043E1,1.747646928E-2,-6.236290932E-2,-3.774833679E-2
1.030697043E1,-1.312872767E-2,-6.729578972E-2,-6.894397736E-2
1.031702743E1,2.500197291E-2,-5.577611923E-2,3.385543823E-2
1.032708493E1,2.876248956E-2,-5.628275871E-2,1.217365265E-2
1.033714093E1,2.027463913E-2,-3.385663033E-2,-4.097366333E-2
1.034719893E1,1.293689013E-2,-3.527545929E-2,-3.906917572E-2
1.035725753E1,1.356363297E-3,-6.212472916E-2,1.101398468E-2
1.036731603E1,-1.536870003E-2,-7.890820503E-2,-1.054382324E-2
1.037748960E1,-1.306173205E-2,-6.690025330E-2,-5.122756958E-2
1.038764885E1,1.323080063E-2,-4.079866409E-2,-6.567287445E-2
1.039779663E1,3.217557073E-2,-6.476879120E-2,-3.215503693E-2
1.040793503E1,7.737040520E-3,-6.440281868E-2,-2.243137360E-2
1.041806558E1,1.177927852E-2,-8.520936966E-2,-1.495933533E-2
1.042818949E1,-5.412161350E-3,-8.905601501E-2,-2.640724182E-3
1.043830795E1,-5.208253860E-4,-9.764337540E-2,2.488136292E-3
1.044842131E1,-9.816735983E-3,-7.045316696E-2,-1.637935638E-2
1.045950343E1,-1.442357898E-2,-6.734371185E-2,-3.050136566E-2
1.046955943E1,2.441883087E-3,-8.336544037E-2,-2.785396576E-2
1.047961643E1,7.125109434E-3,-7.029271126E-2,-2.985763550E-2
1.048967443E1,1.172515750E-2,-8.117175102E-2,-2.228641510E-2
1.049973310E1,-1.239135861E-2,-9.945178032E-2,-1.479148865E-2
1.050979160E1,2.019613981E-3,-8.431529999E-2,-2.649497986E-2
1.051985040E1,-5.066305399E-3,-6.919670105E-2,-1.665878296E-2
1.052990906E1,-7.268756628E-3,-4.684734344E-2,-2.117347717E-2
1.054008235E1,-2.178758383E-3,-6.317305565E-2,-1.145839691E-2
1.055024085E1,1.026532054E-2,-6.055259705E-2,-9.002685547E-3
1.056038829E1,1.068291068E-2,-4.630923271E-2,-1.864051819E-2
1.057052639E1,8.602112532E-3,-5.606079102E-2,-3.307914734E-2
1.058065703E1,-1.037797332E-2,-3.940582275E-2,-1.396942139E-2
1.059078128E1,4.159390926E-3,-3.686928749E-2,-1.871585846E-2
1.060090020E1,1.982241869E-3,-4.141187668E-2,-2.582073212E-2
1.061101449E1,1.914361119E-2,-6.507563591E-2,1.017284393E-2
1.062210943E1,2.180075645E-2,-5.769515038E-2,-1.610565186E-2
1.063216343E1,1.220110059E-2,-6.218481064E-2,-3.515338898E-2
1.064222143E1,-1.055300236E-4,-8.569502831E-2,-5.653476715E-2
1.065227843E1,-1.506733894E-2,-1.040415764E-1,-5.143833160E-2
1.066233543E1,5.998224020E-3,-7.653164864E-2,-2.946186066E-2
1.067239218E1,4.402798414E-2,-7.800722122E-2,-3.967285156E-4
1.068244858E1,3.417649865E-2,-7.742667198E-2,-4.970550537E-3
1.069250442E1,2.672246099E-2,-8.215045929E-2,-3.366661072E-2
1.070267484E1,2.335309982E-3,-7.519149780E-2,-2.893829346E-2
1.071283084E1,-3.092885017E-4,-6.054997444E-2,2.294540405E-3
1.072297595E1,-4.949390888E-3,-4.785084724E-2,-2.139949799E-2
1.073311235E1,-9.285658598E-3,-7.104873657E-2,-2.833938599E-2
1.074324154E1,7.728695869E-3,-5.605030060E-2,2.997398376E-3
1.075336478E1,5.493372679E-3,-6.077504158E-2,2.695560455E-2
1.076348271E1,1.286566257E-3,-2.038860321E-2,-1.383800507E-1
1.077359585E1,4.119053483E-2,-6.691598892E-2,3.596782684E-2
1.078470843E1,2.450168133E-2,-7.853460312E-2,5.919075012E-2
1.079476543E1,1.699984074E-3,-6.418704987E-2,-1.859102249E-1
1.080482243E1,-4.268559813E-2,-3.810119629E-2,-1.605510712E-2
1.081488143E1,-3.672212362E-2,-8.429813385E-2,3.725814819E-2
1.082494010E1,1.150625944E-2,-1.448304653E-1,1.400184631E-2
1.083499860E1,6.209015846E-2,-1.158199310E-1,-3.369808197E-2
1.084505800E1,8.170548081E-2,-7.914137840E-2,-1.263999939E-2
1.085511766E1,4.876527190E-2,-5.102753639E-2,5.534172058E-3
1.086529052E1,2.150565386E-2,1.295185089E-2,-4.577541351E-2
1.087544890E1,-8.372485638E-3,4.730224609E-3,-3.661441803E-2
1.088559601E1,-4.302015901E-2,-2.833437920E-2,-5.382537842E-3
1.089573371E1,-8.522182703E-3,-4.415750504E-2,2.123928070E-2
1.090586334E1,2.373272181E-2,-4.616332054E-2,1.893424988E-2
1.091598634E1,2.967616916E-2,-5.871772766E-3,-4.100799561E-4
1.092610388E1,3.088968992E-2,-9.408235550E-3,-5.647659302E-3
1.093621688E1,7.331967354E-4,-3.489255905E-3,-3.964805603E-2
1.094714988E1,-2.016702294E-2,-7.605981827E-2,-1.359939575E-2
1.095732843E1,-3.674671054E-2,-9.269833565E-2,-3.989982605E-2
1.096737743E1,-5.081802607E-2,-1.278753281E-1,-5.880928040E-2
1.097742743E1,-2.165704966E-2,-9.582161903E-2,-6.089591980E-2
1.098747493E1,-1.657912135E-2,-9.482026100E-2,-3.900909424E-2
1.099752160E1,1.238578558E-2,-8.172464371E-2,-3.862476349E-2
1.100756985E1,4.376950860E-2,-8.975219727E-2,-1.893997192E-2
1.101761865E1,1.993951201E-2,-9.497404099E-2,-6.287574768E-3
1.102780398E1,1.984539628E-2,-7.123494148E-2,-1.030349731E-2
1.103796998E1,1.029255986E-2,-6.468796730E-2,2.283096313E-3
1.104812148E1,-8.831441402E-3,-6.350445747E-2,2.697944641E-3
1.105826192E1,1.000043750E-2,-5.052018166E-2,-3.524208069E-2
1.106839383E1,2.122706175E-2,-2.041649818E-2,-1.078605652E-2
1.107851864E1,-7.129013538E-4,-3.854703903E-2,3.028964996E-2
1.108863773E1,3.293347359E-2,-5.672359467E-2,-3.401565552E-2
1.109875180E1,3.064191341E-2,-7.274198532E-2,-2.897071838E-2
1.110980543E1,3.954175115E-2,-6.491827965E-2,2.156066895E-2
1.111985643E1,2.644309402E-2,-4.095029831E-2,5.992221832E-2
1.112990943E1,1.342362165E-2,-2.533078194E-2,-3.859615326E-2
1.113996293E1,6.576538086E-3,-5.183219910E-3,-3.670883179E-2
1.115001627E1,1.939889789E-2,-2.988719940E-2,2.763271332E-2
1.116006977E1,-6.412178278E-3,-3.998327255E-2,-2.763748169E-2
1.117012377E1,-1.559334993E-2,-4.069924355E-2,-2.311801910E-2
1.118017793E1,-1.089262962E-2,-5.804705620E-2,-3.529167175E-2
1.119115043E1,1.992321014E-2,-6.560206413E-2,-6.413936615E-2
1.120120443E1,2.912896872E-2,-5.597925186E-2,-3.298377991E-2
1.121125843E1,3.096219897E-2,-7.211804390E-2,-1.119518280E-2
1.122131393E1,2.793663740E-2,-7.850408554E-2,-3.706932068E-3
1.123136893E1,3.676295280E-3,-8.013844490E-2,-8.214950562E-3
1.124142393E1,-1.309067011E-2,-7.462239265E-2,-1.992988586E-2
1.125147893E1,-2.511933446E-2,-5.224251747E-2,-2.921199799E-2
1.126153310E1,-1.077470183E-2,-6.083130836E-2,-5.520057678E-2
1.127248643E1,1.080343127E-2,-6.694316864E-2,-5.243015289E-2
1.128254043E1,1.313868165E-2,-7.063984871E-2,-3.528499603E-2
1.129258943E1,1.088073850E-2,-8.883452415E-2,-2.776908875E-2
1.130263993E1,8.584797382E-3,-8.539080620E-2,-1.303958893E-2
1.131269093E1,-8.113622665E-3,-9.632062912E-2,-4.140567780E-2
1.132274143E1,-9.364783764E-4,-8.073902130E-2,-3.858280182E-2
1.133279223E1,-2.247601748E-2,-6.040000916E-2,-1.422309875E-2
1.134284356E1,-1.042106748E-2,-5.232882500E-2,-1.151847839E-2
1.135301042E1,2.088177204E-2,-5.169081688E-2,-1.130104065E-2
1.136316292E1,4.242530465E-2,-4.416608810E-2,-1.836395264E-2
1.137330403E1,2.566012740E-2,-3.223347664E-2,5.564689636E-3
1.138343633E1,3.511267900E-2,-3.221821785E-2,-6.394386292E-3
1.139356097E1,-1.776376367E-2,-6.073451042E-2,-1.828289032E-2
1.140367930E1,-3.964677453E-2,-6.980013847E-2,-2.287673950E-2
1.141379246E1,-1.621633768E-3,-5.001115799E-2,-1.545715332E-2
1.142390110E1,1.736548543E-2,-5.678606033E-2,-1.291275024E-2
1.143501243E1,2.466538548E-2,-6.139993668E-2,-2.961540222E-2
1.144506543E1,2.704527974E-2,-5.625367165E-2,-2.948856354E-2
1.145511443E1,1.011326909E-2,-6.557488441E-2,-5.572795868E-2
1.146516493E1,-4.660964012E-3,-6.264400482E-2,-5.312633514E-2
1.147521426E1,-9.896397591E-3,-7.860493660E-2,-4.085636139E-2
1.148526377E1,-1.521962881E-2,-7.284283638E-2,-3.330612183E-2
1.149531337E1,-6.368666887E-3,-7.416272163E-2,-3.768539429E-2
1.150536337E1,1.446464658E-2,-5.895256996E-2,-3.496265411E-2
1.151632843E1,3.525209427E-2,-5.123257637E-2,-8.404731750E-3
1.152638043E1,2.532881498E-2,-8.694219589E-2,-1.135826111E-3
1.153643043E1,2.026852965E-2,-7.721138000E-2,-1.304054260E-2
1.154648193E1,1.516950130E-2,-4.325246811E-2,-5.689620972E-3
1.155653427E1,-1.886129379E-3,-6.622290611E-2,-5.082225800E-2
1.156658702E1,1.463592052E-4,-3.605270386E-2,-1.917457581E-2
1.157663882E1,-1.261809468E-2,-6.408405304E-2,6.490516663E-2
1.158669048E1,-1.581126451E-2,-4.964494705E-2,-3.319931030E-2
1.159763443E1,1.079252362E-2,-3.825688362E-2,-1.196079254E-1
1.160768443E1,4.255449772E-2,-4.438257217E-2,6.903457642E-2
1.161773343E1,5.402171612E-2,-6.846976280E-2,-2.760982513E-2
1.162778193E1,-3.680288792E-4,-3.924417496E-2,-1.456260681E-1
1.163782960E1,-4.126775265E-2,-2.223491669E-2,2.685165405E-2
1.164787735E1,-6.004917622E-2,-9.946203232E-2,-5.950927734E-3
1.165792495E1,1.422008872E-2,-1.219336987E-1,1.621627808E-2
1.166797278E1,8.397987485E-2,-1.028912067E-1,1.147747040E-2
1.167813335E1,8.896884322E-2,-6.451153755E-2,1.793193817E-2
1.168827998E1,5.850440264E-2,-3.218245506E-2,7.164001465E-3
1.169841520E1,-4.104495049E-3,-1.413941383E-2,-1.799964905E-2
1.170854170E1,-1.529139280E-2,-4.756355286E-2,6.016540527E-2
1.171866115E1,-1.692295074E-2,-4.133152962E-2,1.430797577E-2
1.172877482E1,1.718044281E-2,-4.679536819E-2,-1.708030701E-2
1.173888390E1,1.988410950E-2,-6.879568100E-3,-2.215766907E-2
1.174898882E1,3.200000525E-2,3.800630569E-3,-2.501296997E-2
1.176011143E1,3.692644835E-2,9.080410004E-3,-4.244709015E-2
1.177016043E1,-6.080985069E-3,-5.521178246E-2,-4.077625275E-2
1.178021343E1,-3.993913531E-2,-8.318710327E-2,-5.809688568E-2
1.179026543E1,-4.983758926E-2,-1.178114414E-1,-4.410457611E-2
1.180031810E1,-2.837449312E-2,-1.278023720E-1,-1.151084900E-3
1.181037035E1,-1.883548498E-2,-1.037914753E-1,-1.549148560E-2
1.182042255E1,9.769469500E-3,-1.064374447E-1,-2.993869781E-2
1.183047438E1,-7.262378931E-3,-1.064836979E-1,-6.106853485E-2
1.184141243E1,6.708890200E-3,-1.034159660E-1,-2.011299133E-2
1.185146043E1,1.588732004E-3,-9.011030197E-2,-4.768371582E-4
1.186151043E1,1.085853577E-2,-8.896422386E-2,-9.637832642E-3
1.187156093E1,-1.390397549E-3,-6.683874130E-2,-1.421070099E-2
1.188161193E1,7.815271616E-3,-4.748177528E-2,-4.764270782E-2
1.189166293E1,1.444876194E-2,-1.148414612E-2,-5.716609955E-2
1.190171353E1,3.534889221E-2,-3.784418106E-3,7.472419739E-2
1.191176420E1,1.127055287E-2,-1.746892929E-2,-2.319240570E-2
1.192270743E1,2.623137832E-2,-3.633403778E-2,-3.748130798E-2
1.193275943E1,3.817135096E-2,-4.097771645E-2,-4.700565338E-2
1.194281143E1,4.951807857E-2,-4.122400284E-2,5.109596252E-2
1.195286193E1,1.228648424E-2,-2.077937126E-2,-6.695747375E-3
1.196291193E1,1.378428936E-2,-4.635405540E-2,-2.159595490E-2
1.197296218E1,2.352181077E-2,-5.001783371E-2,2.104759216E-2
1.198301158E1,1.142185926E-2,-7.453632355E-2,1.697540283E-3
1.199306075E1,-5.698174238E-3,-6.312012672E-2,-4.397201538E-2
1.200402543E1,-1.579421759E-2,-5.188536644E-2,-5.378437042E-2
1.201407643E1,3.154441714E-2,-3.088688850E-2,-4.198360443E-2
1.202412843E1,4.783245921E-2,-3.610229492E-2,-3.732395172E-2
1.203417843E1,3.054922819E-2,-5.288004875E-2,-2.533435822E-2
1.204422910E1,1.790207624E-2,-5.960845947E-2,-1.796340942E-2
1.205427910E1,-1.399111748E-2,-8.531713486E-2,-1.052665710E-2
1.206432990E1,-1.913490891E-2,-5.808663368E-2,-2.695751190E-2
1.207438156E1,-7.318139076E-3,-5.724239349E-2,-1.707839966E-2
1.208531856E1,-7.267057896E-3,-6.588482857E-2,-4.308700562E-2
1.209538043E1,1.467129588E-2,-6.259131432E-2,-1.645278931E-2
1.210543643E1,7.478922606E-3,-9.773063660E-2,-1.857376099E-2
1.211549643E1,2.320408821E-4,-1.065013409E-1,-1.589488983E-2
1.212555593E1,-1.414051652E-2,-1.176977158E-1,-2.998638153E-2
1.213561293E1,1.219674945E-2,-7.592368126E-2,-2.960968018E-2
1.214566968E1,1.951798797E-2,-6.044936180E-2,-3.161907196E-2
1.215572568E1,1.976969838E-2,-4.047513008E-2,-5.288887024E-2
1.216665543E1,8.949637413E-4,-4.228711128E-2,-2.875423431E-2
1.217670743E1,1.083755493E-2,-2.985405922E-2,-2.142429352E-2
1.218675743E1,-2.722170949E-2,-5.576682091E-2,-2.128696442E-2
1.219680743E1,-1.018694043E-2,-3.844642639E-2,-2.828311920E-2
1.220685910E1,-2.879142761E-3,-3.526759148E-2,-2.322483063E-2
1.221691135E1,-4.419088364E-4,-3.455615044E-2,-4.212951660E-2
1.222696355E1,3.779989481E-2,-5.052852631E-2,-3.466606140E-2
1.223701571E1,1.631358266E-2,-3.292226791E-2,-2.958106995E-2
1.224798243E1,6.707668304E-3,-5.592036247E-2,-5.305290222E-3
1.225803743E1,2.546027303E-2,-8.108997345E-2,-1.445198059E-2
1.226809243E1,-2.065718174E-2,-8.454179764E-2,-1.395320892E-2
1.227814793E1,-4.952728748E-3,-7.592248917E-2,-2.297592163E-2
1.228820326E1,2.249196172E-2,-6.496715546E-2,-5.834579468E-2
1.229825802E1,6.768405437E-3,-6.356430054E-2,-6.018447876E-2
1.230831262E1,2.708125114E-2,-5.252718925E-2,-2.848815918E-2
1.231836728E1,2.101755142E-2,-6.308221817E-2,-3.032398224E-2
1.232930343E1,3.193330765E-2,-5.940794945E-2,-1.066875458E-2
1.233935543E1,1.689437032E-2,-7.044172287E-2,2.081680298E-2
1.234940743E1,1.995235682E-3,-7.250976562E-2,-5.379676819E-3
1.235945943E1,1.591375470E-2,-7.462286949E-2,9.105682373E-3
1.236951043E1,7.845968008E-3,-6.920742989E-2,-2.604484558E-3
1.237956243E1,-5.059778690E-3,-7.288432121E-2,-2.132225037E-2
1.238961523E1,-3.419578075E-3,-7.402181625E-2,7.066726685E-4
1.239966907E1,5.317628384E-3,-7.315731049E-2,6.330013275E-2
1.240983664E1,2.376884222E-2,-2.271127701E-2,-2.998352051E-2
1.241999026E1,2.692776918E-2,-9.165525436E-3,-9.255695343E-2
1.243013304E1,4.468676448E-2,-5.393481255E-2,7.200527191E-2
1.244026744E1,4.036957026E-2,-6.132435799E-2,-4.864788055E-2
1.245039471E1,-2.109310031E-2,-5.841660500E-2,-9.244632721E-2
1.246051596E1,-6.482654810E-2,-5.537509918E-2,4.667663574E-2
1.247063227E1,-6.707367301E-2,-8.211135864E-2,-4.588985443E-2
1.248074441E1,-4.135787487E-3,-9.492516518E-2,-1.653289795E-2
1.249188743E1,8.028131723E-2,-9.759116173E-2,2.117156982E-4
1.250194243E1,8.581754565E-2,-4.501700401E-2,2.573966980E-2
1.251199843E1,7.782387733E-2,-2.228832245E-2,-2.098846436E-2
1.252205343E1,2.792024612E-2,-6.823539734E-3,-1.752185822E-2
1.253210876E1,-1.403358579E-2,-7.088708878E-2,3.684997559E-2
1.254216426E1,1.632660627E-3,-6.380105019E-2,1.999950409E-2
1.255221907E1,2.762079239E-4,-5.405497551E-2,-2.787303925E-2
1.256227406E1,2.285254002E-2,-1.817059517E-2,-3.750705719E-2
1.257244278E1,2.114316821E-2,-8.575677872E-3,-3.034877777E-2
1.258259690E1,1.200658083E-2,-1.167130470E-2,-1.864528656E-2
1.259274035E1,2.429389954E-2,-6.995487213E-2,-4.289150238E-2
1.260287485E1,5.158126354E-3,-6.531596184E-2,-5.731105804E-2
1.261300167E1,-1.936078072E-3,-7.692909241E-2,-2.127647400E-2
1.262312217E1,8.097887039E-4,-9.323191643E-2,-2.113056183E-2
1.263323747E1,-1.780182123E-2,-1.023790836E-1,-2.818679810E-2
1.264334826E1,-1.022085547E-2,-1.019413471E-1,-2.326011658E-2
1.265443043E1,-4.354169965E-2,-1.274518967E-1,3.356933594E-3
1.266448343E1,1.410618424E-2,-1.331272125E-1,-1.048374176E-2
1.267453843E1,1.660373807E-2,-1.242880821E-1,2.122116089E-2
1.268459393E1,1.184654236E-2,-1.062533855E-1,1.230239868E-4
1.269464893E1,2.406361699E-2,-6.706619263E-2,-1.154708862E-2
1.270470368E1,5.177378654E-3,-4.746294022E-2,-2.576446533E-2
1.271475848E1,-6.496280432E-3,-3.801822662E-3,7.940292358E-3
1.272481332E1,1.069843769E-2,-1.276826859E-2,8.714485168E-2
1.273577143E1,-1.489675045E-2,-3.408741951E-2,-5.167102814E-2
1.274582543E1,2.965360880E-3,-3.430461884E-2,-6.376838684E-2
1.275588143E1,7.979094982E-3,-4.420995712E-2,-3.277111053E-2
1.276593593E1,1.731196046E-2,-4.732370377E-2,5.292892456E-3
1.277599026E1,2.143493295E-2,-2.961063385E-2,-1.194477081E-2
1.278604502E1,2.413412929E-2,-4.070210457E-2,-3.643703461E-2
1.279610002E1,3.469276428E-2,-4.623603821E-2,1.563072205E-3
1.280615518E1,-2.686619759E-3,-5.383276939E-2,-8.200645447E-3
1.281632461E1,-1.871213317E-2,-6.647300720E-2,-1.325988770E-2
1.282647986E1,-1.347249746E-2,-5.518960953E-2,-2.788734436E-2
1.283662408E1,8.329242468E-3,-7.240390778E-2,-3.284740448E-2
1.284675958E1,5.169248581E-2,-9.392786026E-2,-1.609134674E-2
1.285688822E1,2.760893106E-2,-7.183575630E-2,-3.922462463E-3
1.286701063E1,1.512393355E-2,-1.046473980E-1,-1.083278656E-2
1.287712779E1,3.694295883E-4,-8.193540573E-2,-2.476978302E-2
1.288724050E1,-2.610871196E-2,-7.842946053E-2,-1.239776611E-2
1.289836343E1,-1.632380486E-2,-6.292414665E-2,-3.355216980E-2
1.290841843E1,-3.942131996E-3,-4.763317108E-2,-4.042625427E-2
1.291847343E1,-1.074817777E-2,-6.357145309E-2,-1.620960236E-2
1.292852843E1,1.107046008E-2,-8.452486992E-2,-2.558803558E-2
1.293858443E1,2.339312434E-2,-1.149652004E-1,-3.014945984E-2
1.294864018E1,-7.451713085E-3,-9.513854980E-2,-2.752971649E-2
1.295869578E1,1.191294193E-2,-7.513093948E-2,-8.083343506E-3
1.296875095E1,1.210370660E-2,-6.711554527E-2,-2.455520630E-2
1.297970143E1,1.484486461E-2,-5.445647240E-2,-5.173683167E-3
1.298975543E1,1.540237665E-2,-5.168032646E-2,-1.942825317E-2
1.299980843E1,2.331781387E-2,-4.224419594E-2,-1.951026917E-2
1.300986143E1,2.162456512E-2,-4.259824753E-2,1.145744324E-2
1.301991477E1,1.259225607E-2,-3.325343132E-2,1.613998413E-2
1.302996752E1,-1.105910540E-2,-4.302501678E-2,-2.224922180E-2
1.304001972E1,-1.088100672E-2,-4.814624786E-2,-3.221511841E-3
1.305007222E1,-1.351267099E-3,-5.094742775E-2,1.423835754E-3
1.306023850E1,3.231075406E-2,-4.894995689E-2,-8.298873901E-3
1.307039000E1,1.352936029E-3,-6.366562843E-2,-2.758407593E-2
1.308053022E1,1.610285044E-2,-4.708981514E-2,-4.681968689E-2
1.309066162E1,-5.013018847E-3,-4.479670525E-2,-3.490257263E-2
1.310078553E1,-1.382407546E-2,-5.684804916E-2,-4.214763641E-2
1.311090336E1,6.316542625E-3,-6.870794296E-2,-2.060413361E-2
1.312101629E1,1.171660423E-2,-5.184888840E-2,1.771259308E-2
1.313112500E1,1.224783063E-2,-8.801412582E-2,-2.789020538E-2
1.314222043E1,-1.105806231E-2,-9.313368797E-2,-3.521728516E-2
1.315227343E1,6.378144026E-3,-8.578038216E-2,-1.842689514E-2
1.316232743E1,3.556880355E-2,-6.592106819E-2,-2.777385712E-2
1.317238343E1,9.865611792E-3,-6.480550766E-2,-4.416465759E-2
1.318243910E1,1.062461734E-2,-6.615829468E-2,-3.185749054E-2
1.319249410E1,1.135233045E-2,-5.588483810E-2,1.624107361E-2
1.320254970E1,2.178397775E-2,-4.374599457E-2,-1.246643066E-2
1.321260486E1,-1.141279936E-3,-3.684544563E-2,-1.227436066E-1
1.322357343E1,2.035278082E-2,-7.366847992E-2,8.752346039E-2
1.323362543E1,-1.446413994E-2,-9.261894226E-2,-3.061485291E-2
1.324367843E1,-1.553761959E-2,-6.630396843E-2,-1.272945404E-1
1.325373043E1,-3.734356165E-2,-5.582308769E-2,7.175540924E-2
1.326378177E1,-5.138781667E-2,-9.699201584E-2,-2.084827423E-2
1.327383252E1,2.370661497E-2,-8.140754700E-2,-1.556205750E-2
1.328388392E1,9.449627995E-2,-6.772017479E-2,-1.097011566E-2
1.329393525E1,8.417546749E-2,-3.454685211E-2,1.682186127E-2
1.330409982E1,5.068930984E-2,-9.566545486E-3,-2.999591827E-2
1.331424957E1,-2.479907870E-2,-1.000785828E-2,-3.583431244E-2
1.332438801E1,-2.998858690E-2,-2.085018158E-2,2.109432220E-2
1.333451771E1,-2.796432376E-2,-5.447912216E-2,1.857662201E-2
1.334464044E1,-9.399354458E-3,-4.719591141E-2,-1.259040833E-2
1.335475736E1,1.133969426E-2,-1.618218422E-2,-2.945613861E-2
1.336486920E1,7.029154897E-2,-2.329587936E-3,-3.362655640E-3
1.337497649E1,4.059329629E-2,-1.956939697E-2,-2.753448486E-2
1.338607943E1,-8.028954268E-3,-4.636645317E-2,-8.612632751E-3
1.339612943E1,-3.296712041E-2,-1.088352203E-1,-4.226684570E-2
1.340617743E1,-4.845294356E-2,-9.435248375E-2,-2.312469482E-2
1.341622443E1,-1.856184006E-2,-1.109170914E-1,-3.507328033E-2
1.342627110E1,-5.052983761E-4,-1.132228374E-1,-3.030776978E-2
1.343631860E1,-4.019171000E-3,-9.364390373E-2,-2.781581879E-2
1.344636640E1,-7.493793964E-4,-1.001081467E-1,-6.049156189E-3
1.345641406E1,4.627436399E-3,-1.088030338E-1,-3.368377686E-3
1.346737643E1,-2.621296048E-2,-1.101229191E-1,-6.055831909E-4
1.347742243E1,1.004886627E-2,-8.526396751E-2,-7.478713989E-3
1.348747043E1,5.668669939E-3,-6.548905373E-2,-2.642917633E-2
1.349751993E1,2.037292719E-2,-3.648757935E-2,-3.113651276E-2
1.350756993E1,1.823416352E-2,-5.062103271E-3,-3.582859039E-2
1.351762018E1,1.374596357E-2,3.841161728E-2,8.879089355E-2
1.352767078E1,-4.419863224E-3,-2.893257141E-2,-2.867221832E-2
1.353772112E1,-1.763004065E-2,-2.229452133E-2,-4.088306427E-2
1.354867443E1,-1.230445504E-2,-4.671621323E-2,-1.952552795E-2
1.355872143E1,4.294395447E-3,-1.372241974E-2,3.296756744E-2
1.356877043E1,2.725589275E-2,-4.133486748E-2,-8.146286011E-3
1.357881743E1,1.651626825E-2,-5.043101311E-2,-4.708194733E-2
1.358886310E1,2.381986380E-2,-6.857991219E-2,-1.884555817E-2
1.359890810E1,2.664199471E-2,-6.926703453E-2,-4.741668701E-3
1.360895310E1,3.773272038E-4,-6.036663055E-2,-2.413463593E-2
1.361899876E1,-1.940608025E-3,-4.906940460E-2,-2.676868439E-2
1.362993643E1,-1.937389374E-3,-4.946970940E-2,-2.691078186E-2
1.363998543E1,5.138665438E-3,-4.702377319E-2,-7.734298706E-3
1.365002843E1,2.150493860E-2,-8.259654045E-2,-5.205154419E-3
1.366007243E1,1.132383943E-2,-1.155190468E-1,-9.757995605E-3
1.367011743E1,1.076909900E-2,-8.819723129E-2,-2.135848999E-2
1.368016343E1,2.704048157E-2,-8.465266228E-2,3.007888794E-3
1.369020863E1,3.276169300E-4,-7.168555260E-2,-3.014373779E-2
1.370025413E1,-1.649913192E-2,-6.109642982E-2,-5.372524261E-2
1.371121843E1,-9.264588356E-3,-6.021523476E-2,-4.144573212E-2
1.372126943E1,1.471400261E-2,-5.929565430E-2,-4.112243652E-2
1.373132243E1,1.501876116E-2,-7.771253586E-2,-2.890396118E-2
1.374137293E1,2.036020160E-2,-6.511497498E-2,-3.828144073E-2
1.375142426E1,4.165142775E-3,-6.442999840E-2,-2.848625183E-2
1.376147602E1,-3.497004509E-4,-5.404520035E-2,-1.624011993E-2
1.377152662E1,-1.901814342E-2,-6.042098999E-2,-1.118564606E-2
1.378157645E1,-1.336193085E-2,-4.056620598E-2,-1.097297668E-2
1.379251045E1,9.126424789E-3,-4.982995987E-2,-1.090049744E-2
1.380254843E1,-1.393547654E-2,-3.787946701E-2,-1.094341278E-2
1.381259443E1,1.323583722E-2,-3.790926933E-2,-1.410484314E-3
1.382263943E1,3.063625097E-2,-3.542280197E-2,-2.295112610E-2
1.383268443E1,-4.798203707E-3,-2.086496353E-2,-1.811313629E-2
1.384272910E1,7.573902607E-3,-4.918432236E-2,-4.192543030E-2
1.385277435E1,-6.235748529E-3,-5.359411240E-2,-3.702545166E-2
1.386281895E1,-1.560524106E-2,-6.760263443E-2,-3.451347351E-2
1.387375643E1,-2.246809006E-2,-6.981468201E-2,-3.685569763E-2
1.388380243E1,1.641407609E-2,-6.245851517E-2,1.490592957E-3
1.389384943E1,1.231804490E-2,-8.430838585E-2,1.093292236E-2
1.390389643E1,2.965235710E-2,-7.733345032E-2,-1.134872437E-3
1.391394277E1,6.244778633E-3,-6.019997597E-2,-2.975463867E-2
1.392398876E1,-2.676373720E-2,-6.161689758E-2,-3.182125092E-2
1.393403496E1,-1.428291202E-2,-6.760978699E-2,-2.689361572E-3
1.394408113E1,-4.262834787E-3,-5.978059769E-2,4.540538788E-2
1.395424570E1,-8.927673101E-3,-3.815293312E-2,-1.006183624E-1
1.396439595E1,6.871134043E-3,-4.345822334E-2,-4.818439484E-2
1.397453484E1,2.035158873E-2,-7.122731209E-2,5.659294128E-2
1.398466484E1,5.003529787E-2,-8.803677559E-2,-9.514331818E-2
1.399478738E1,-1.099172235E-2,-6.060051918E-2,-1.052255630E-1
1.400490355E1,-5.192819238E-2,-4.475879669E-2,8.444786072E-2
1.401501432E1,-4.913645983E-2,-9.290552139E-2,-3.443050385E-2
1.402512046E1,3.100603819E-2,-9.650349617E-2,-2.198791504E-2
1.403527593E1,8.276817203E-2,-7.334899902E-2,-1.026058197E-2
1.404542474E1,7.016226649E-2,-1.848316193E-2,1.997089386E-2
1.405556774E1,3.439685702E-2,-5.093812943E-3,-1.953411102E-2
1.406570563E1,-7.677286863E-3,-2.187633514E-2,-4.436969757E-2
1.407583868E1,-3.225675225E-2,-4.667568207E-2,1.990127563E-2
1.408596743E1,-2.584144473E-2,-5.843949318E-2,-1.636505127E-3
1.409609233E1,-1.979279518E-2,-4.630923271E-2,-1.838874817E-2
1.410621374E1,1.249399781E-2,-3.357887268E-3,-2.806091309E-2
1.411636683E1,2.554351091E-2,5.885362625E-3,-3.300857544E-2
1.412651574E1,2.657681704E-2,-4.128217697E-3,-1.883697510E-2
1.413666078E1,-5.929082632E-3,-4.266262054E-2,-2.374458313E-2
1.414680229E1,-1.691365242E-2,-7.383131981E-2,-4.295063019E-2
1.415694047E1,-3.730726242E-2,-9.516596794E-2,-1.658344269E-2
1.416707554E1,-2.417930961E-2,-1.067121029E-1,-1.647663116E-2
1.417720775E1,-2.302363515E-2,-1.060214043E-1,-4.306793213E-3
1.418733735E1,-2.479729056E-2,-1.007864475E-1,-6.566047668E-3
1.419864743E1,-5.666017532E-4,-9.771585464E-2,-2.070331573E-2
1.420870243E1,4.258513451E-3,-1.062569618E-1,-3.709888458E-2
1.421875443E1,3.320369124E-2,-9.525322914E-2,-1.505470276E-2
1.422880793E1,1.934057474E-2,-8.201575279E-2,-2.659702301E-2
1.423886160E1,1.289111376E-2,-6.408214569E-2,-2.381420135E-2
1.424891510E1,1.132088900E-2,-3.195786476E-2,-4.025173187E-2
1.425896830E1,1.443475485E-2,-9.411811829E-3,-1.598262787E-2
1.426902180E1,1.041904092E-2,-2.265501022E-2,4.663467407E-2
1.427996480E1,-2.706021070E-3,-3.642892838E-2,-7.769966125E-2
1.429002243E1,-1.987099648E-3,-4.320621490E-2,-2.969837189E-2
1.430007843E1,1.252877712E-2,-4.514074326E-2,-3.204345703E-3
1.431013543E1,3.119674325E-2,-4.754734039E-2,3.750896454E-2
1.432019043E1,1.083835959E-2,-7.018208504E-2,-3.465652466E-2
1.433024510E1,2.499511838E-2,-6.385278702E-2,-2.537441254E-2
1.434030010E1,2.065122128E-2,-6.622886658E-2,2.728652954E-2
1.435035510E1,3.964722157E-3,-6.382107735E-2,-3.835678101E-3
1.436129643E1,-3.409445286E-3,-6.419658661E-2,-2.072048187E-2
1.437134843E1,-2.782756090E-2,-5.742025375E-2,-3.042316437E-2
1.438139943E1,-1.385250688E-2,-4.325652122E-2,-5.442237854E-2
1.439144893E1,1.182460785E-2,-5.266523361E-2,-3.039550781E-2
1.440149893E1,3.686130047E-3,-7.583689690E-2,-2.051067352E-2
1.441154943E1,1.450514793E-2,-9.623527527E-2,-8.088111877E-3
1.442159963E1,-2.239221334E-2,-8.278417587E-2,-9.921073914E-3
1.443164930E1,-1.354578137E-2,-8.355641365E-2,-1.889610291E-2
1.444181473E1,-2.357298136E-2,-6.997489929E-2,-3.746128082E-2
1.445196523E1,-1.446640491E-2,-6.832551956E-2,-3.685855865E-2
1.446210467E1,6.575375795E-3,-9.296464920E-2,-3.384208679E-2
1.447223507E1,2.795311809E-2,-9.365940094E-2,2.870559692E-4
1.448235780E1,6.159424782E-3,-9.932971001E-2,-1.353073120E-2
1.449247430E1,-6.125956774E-3,-8.600497246E-2,-2.740287781E-2
1.450258553E1,-6.528943777E-3,-5.821847916E-2,-1.968860626E-2
1.451269246E1,-1.912713051E-3,-5.923581123E-2,-2.637481689E-2
1.452378343E1,9.866893291E-3,-3.902983665E-2,3.433227539E-4
1.453383643E1,1.934731007E-2,-4.795694351E-2,2.451992035E-2
1.454389243E1,1.208016276E-2,-5.013871193E-2,-1.610088348E-2
1.455394593E1,-2.269953489E-3,-4.040622711E-2,-6.470680237E-3
1.456399927E1,1.901835203E-2,-3.041911125E-2,-2.546691895E-2
1.457405352E1,-7.605850697E-4,-3.474140167E-2,-3.006553650E-2
1.458410752E1,3.353804350E-3,-5.580091476E-2,-2.747154236E-2
1.459416118E1,4.882216454E-3,-5.288910866E-2,-2.007007599E-2
1.460510018E1,2.790111303E-2,-5.747222900E-2,-5.597114563E-3
1.461514843E1,1.731616259E-2,-5.769968033E-2,8.725166321E-3
1.462520143E1,1.640424132E-2,-6.102776527E-2,-1.149177551E-3
1.463525243E1,5.762666464E-3,-8.091688156E-2,-6.157875061E-3
1.464530443E1,1.905769110E-3,-6.444692612E-2,-2.296352386E-2
1.465535577E1,-1.156729460E-2,-8.085465431E-2,-4.193401337E-2
1.466540726E1,-2.738568187E-2,-7.773828506E-2,-5.705833435E-3
1.467545827E1,-9.473115206E-3,-8.687782288E-2,4.956436157E-2
1.468641643E1,2.527889609E-2,-5.099439621E-2,-2.461910248E-2
1.469646943E1,3.149574995E-2,-4.190874100E-2,-1.540431976E-1
1.470652243E1,4.361313581E-2,-3.549814224E-2,8.030700684E-2
1.471657493E1,3.770393133E-2,-8.076143265E-2,-9.006500244E-3
1.472662493E1,1.378491521E-2,-7.864832878E-2,-1.488237381E-1
1.473667393E1,-3.488937020E-2,-6.742262840E-2,9.275817871E-2
1.474672253E1,-6.885230541E-2,-9.774327278E-2,2.177238464E-3
1.475677103E1,-3.320655227E-2,-9.445524216E-2,-4.767513275E-2
1.476770843E1,7.978516817E-2,-8.047556877E-2,-2.618694305E-2
1.477775743E1,8.710142970E-2,-3.763103485E-2,2.803134918E-2
1.478780843E1,5.668267608E-2,9.658336639E-4,-3.574752808E-2
1.479785893E1,-7.908076048E-3,4.024958611E-2,-8.019924164E-2
1.480790960E1,-2.891042829E-2,1.948237419E-2,-2.812004089E-2
1.481796035E1,-3.785777092E-2,-2.825474739E-2,1.021385193E-2
1.482801055E1,-8.571684361E-3,-3.940653801E-2,3.299713135E-3
1.483806071E1,1.551768184E-2,-5.840253830E-2,1.053047180E-2
1.484899843E1,8.446931839E-3,-2.775621414E-2,-2.555656433E-2
1.485904843E1,3.966185451E-2,-2.856397629E-2,-5.218219757E-2
1.486909343E1,2.544301748E-2,-4.598522186E-2,-7.157707214E-2
1.487913993E1,1.372444630E-2,-7.009840012E-2,-3.812885284E-2
1.488918693E1,-4.887670279E-3,-8.188199997E-2,-2.371978760E-2
1.489923493E1,-1.121184230E-2,-1.366558075E-1,-1.167869568E-2
1.490928353E1,-5.134680867E-2,-1.074571609E-1,-3.308391571E-2
1.491933270E1,-3.419214487E-2,-1.166005135E-1,-3.534030914E-2
1.493030343E1,-2.942326665E-2,-1.229681969E-1,-1.589775085E-2
1.494035543E1,2.339887619E-2,-7.604217529E-2,-5.816459656E-3
1.495040643E1,5.218020082E-2,-8.675336838E-2,-1.255512238E-2
1.496045743E1,4.253533483E-2,-8.350729942E-2,9.298324585E-3
1.497050743E1,4.969826341E-2,-5.918264389E-2,-7.325172424E-3
1.498055593E1,1.850393414E-2,-4.221081734E-2,-3.597736359E-2
1.499060413E1,-3.173142672E-3,-2.029109001E-2,-3.344631195E-2
1.500065197E1,4.039764404E-3,-1.471924782E-2,5.781078339E-2
1.501159143E1,-1.954457164E-2,-1.922559738E-2,-3.068828583E-2
1.502164043E1,2.831786871E-3,-5.041480064E-2,-4.989910126E-2
1.503168843E1,5.069196224E-3,-4.088664055E-2,-2.596664429E-2
1.504173643E1,2.843087912E-2,-2.941107750E-2,3.612804413E-2
1.505178276E1,4.384550452E-2,-1.886796951E-2,-1.939105988E-2
1.506182902E1,3.585559130E-2,-3.030443192E-2,-1.522827148E-2
1.507187462E1,3.341490030E-2,-3.647041321E-2,-8.532524109E-3
1.508192062E1,1.199269295E-2,-3.006076813E-2,-6.418228149E-3
1.509287143E1,-9.611666203E-3,-6.176471710E-2,-3.056240082E-2
1.510292143E1,-1.469358802E-2,-4.774045944E-2,-3.067111969E-2
1.511297043E1,4.242810607E-2,-5.990314484E-2,-3.790855408E-2
1.512302143E1,3.720322251E-2,-6.211090088E-2,-2.585315704E-2
1.513307243E1,2.450278401E-2,-9.264111519E-2,-1.124763489E-2
1.514312343E1,1.862260699E-2,-8.675241470E-2,-1.081275940E-2
1.515317463E1,-3.234738111E-2,-9.491062164E-2,-3.182983398E-2
1.516322563E1,-1.586669683E-2,-1.031508446E-1,-3.134346008E-2
1.517419043E1,-1.837798953E-2,-4.664874077E-2,-1.885795593E-2
1.518423543E1,-1.590561867E-2,-5.748581886E-2,-1.606369019E-2
1.519428343E1,3.293544054E-3,-7.087111473E-2,-2.050781250E-2
1.520433343E1,2.239048481E-2,-8.207607269E-2,1.328754425E-2
1.521438277E1,1.028674841E-2,-8.612751961E-2,-2.714633942E-2
1.522443226E1,1.500752568E-2,-6.633830070E-2,-5.325508118E-2
1.523448187E1,-1.152172685E-2,-8.235168457E-2,-1.467418671E-2
1.524453170E1,-4.511117935E-3,-6.007218361E-2,-3.595447540E-2
1.525547743E1,1.473778486E-2,-4.758834839E-2,-1.662254333E-2
1.526552143E1,3.180938959E-2,-4.008436203E-2,1.220989227E-2
1.527557143E1,2.495020628E-2,-3.271031380E-2,-4.495620728E-3
1.528562143E1,8.440315723E-3,-3.511738777E-2,-4.509925842E-3
1.529567010E1,-2.513238788E-2,-3.039526939E-2,-2.129077911E-2
1.530571910E1,-5.987912416E-3,-4.482102394E-2,-3.088760376E-2
1.531576830E1,1.126796007E-3,-4.458427429E-2,-2.122497559E-2
1.532581780E1,8.452564478E-3,-4.247212410E-2,7.399559021E-3
1.533676543E1,1.589894295E-3,-6.242632866E-2,-1.923465729E-2
1.534681543E1,4.486411810E-3,-5.854296684E-2,-4.351997375E-2
1.535686443E1,9.818941355E-3,-6.870985031E-2,-1.262760162E-2
1.536691243E1,1.495003700E-2,-6.137704849E-2,-3.413486481E-2
1.537695910E1,1.773330569E-2,-5.827069283E-2,-3.629112244E-2
1.538700585E1,-1.309600472E-2,-8.369898796E-2,-4.857063293E-3
1.539705245E1,8.629202843E-3,-7.833075523E-2,5.280303955E-2
1.540709878E1,3.049859405E-2,-5.912160873E-2,-4.295921326E-2
1.541804743E1,3.808644414E-2,-6.646275520E-2,-8.373260498E-2
1.542809043E1,1.712548733E-2,-1.053907871E-1,5.249214172E-2
1.543813443E1,2.404862642E-2,-9.475564957E-2,-9.401798248E-2
1.544817843E1,1.024428010E-2,-5.296826363E-2,-1.423902512E-1
1.545822276E1,-2.176123857E-2,-6.703162193E-2,2.774143219E-2
1.546826626E1,-7.706254721E-3,-9.651184082E-2,-3.381347656E-2
1.547830987E1,3.820836544E-2,-8.537554741E-2,-4.993629456E-2
1.548835403E1,7.955792546E-2,-7.800245285E-2,-1.913070679E-3
1.549929943E1,4.644390941E-2,-3.774881363E-2,1.946449280E-3
1.550934743E1,-2.130922675E-2,-1.269221306E-2,-5.439472198E-2
1.551939543E1,-3.757879138E-2,4.019260406E-3,-8.161830902E-2
1.552944243E1,-3.394001722E-2,6.196975708E-3,-1.231575012E-2
1.553948943E1,-1.597365737E-2,-3.322601318E-2,1.442527771E-2
1.554953568E1,5.471375585E-2,-3.670787811E-2,4.117202759E-2
1.555958308E1,6.778559089E-2,-3.642439842E-2,2.921104431E-3
1.556963042E1,4.473459721E-2,-1.337838173E-2,-1.658821106E-2
1.558058043E1,1.894670725E-2,-2.664494514E-2,-2.664756775E-2
1.559062743E1,-2.877426147E-2,-4.214143753E-2,-2.705574036E-2
1.560067343E1,-2.164703608E-2,-9.311342239E-2,-3.448104858E-2
1.561072143E1,-5.025133491E-2,-1.148860455E-1,-1.541233063E-2
1.562076810E1,-3.310799599E-2,-1.195297241E-1,-2.974224091E-2
1.563081485E1,-2.044269443E-2,-9.044957161E-2,-2.485752106E-2
1.564086165E1,-5.417644978E-3,-7.087039948E-2,-3.431034088E-2
1.565090848E1,4.462897778E-3,-8.221578598E-2,-2.976417542E-3
1.566186843E1,4.300892353E-3,-8.138394356E-2,-2.661800385E-2
1.567191343E1,6.722182035E-3,-7.588672638E-2,-1.439571381E-2
1.568195743E1,-3.088533878E-3,-7.067990303E-2,-2.142047882E-2
1.569199993E1,1.791283488E-2,-5.614352226E-2,-3.809547424E-2
1.570204326E1,4.830273986E-2,-3.688502312E-2,-4.281616211E-2
1.571208752E1,4.513129592E-2,-3.153085709E-3,7.567405701E-3
1.572213252E1,1.126495004E-2,-2.956295013E-2,7.555961609E-3
1.573217752E1,6.465584040E-3,-4.223728180E-2,-2.269744873E-3
1.574321243E1,2.057173848E-2,-6.468462944E-2,-5.525112152E-2
1.575326343E1,5.084306002E-3,-1.776027679E-2,1.149272919E-2
1.576331143E1,1.789185405E-2,-2.394199371E-3,1.585006714E-2
1.577336043E1,4.703444242E-2,-1.209139824E-2,-1.608371735E-2
1.578340977E1,5.818173289E-2,-2.690649033E-2,-2.690315247E-3
1.579345952E1,3.399983048E-2,-2.442288399E-2,4.199314117E-2
1.580350912E1,-9.490162134E-3,-5.997300148E-2,-8.986473083E-3
1.581355795E1,-3.622174263E-2,-5.234670639E-2,-5.036163330E-2
1.582451443E1,-1.267045736E-2,-4.928135872E-2,-2.701187134E-2
1.583456143E1,2.036035061E-2,-4.091668129E-2,-3.460025787E-2
1.584461143E1,3.650745749E-2,-7.316064835E-2,-3.845214844E-3
1.585466343E1,2.142825723E-2,-9.793257713E-2,-1.847362518E-2
1.586471443E1,1.580071449E-2,-1.055302620E-1,-3.055477142E-2
1.587476543E1,8.543729782E-4,-1.029894352E-1,-4.005527496E-2
1.588481623E1,-4.087150097E-3,-7.377243042E-2,-3.965377808E-3
1.589486756E1,1.271283627E-2,-5.191206932E-2,-3.976917267E-2
1.590583143E1,5.323320627E-3,-6.132984161E-2,-5.406951904E-2
1.591588243E1,1.226857305E-2,-6.836438179E-2,-1.809406281E-2
1.592593143E1,-2.426564693E-3,-7.020497322E-2,-8.308410645E-3
1.593598193E1,7.000625134E-3,-8.871793747E-2,-1.047039032E-2
1.594603260E1,-1.232290268E-2,-8.110737801E-2,-1.509952545E-2
1.595608310E1,4.071503878E-3,-8.342981339E-2,-3.421306610E-2
1.596613370E1,1.822268963E-2,-7.398223877E-2,-4.622077942E-2
1.597618470E1,8.870750666E-3,-6.964731216E-2,-3.294944763E-3
1.598713643E1,3.548216820E-2,-4.846715927E-2,3.247737885E-2
1.599718843E1,-7.504045963E-3,-4.432106018E-2,-1.273155212E-3
1.600723543E1,6.802588701E-3,-3.059029579E-2,8.993148804E-4
1.601728293E1,3.855913877E-3,-4.081320763E-2,-1.366996765E-2
1.602733160E1,-4.001080990E-3,-3.882002831E-2,-4.730129242E-2
1.603738010E1,-7.112145424E-3,-4.393887520E-2,-3.062820435E-2
1.604742910E1,8.800476789E-3,-3.709125519E-2,2.808570862E-3
1.605747876E1,3.258019686E-3,-6.169581413E-2,2.654933929E-2
1.606842643E1,-6.789028645E-3,-6.799435616E-2,-1.466369629E-2
1.607847743E1,1.181682944E-2,-5.553126335E-2,-2.728176117E-2
1.608852643E1,1.368433237E-3,-3.828310966E-2,-1.833724976E-2
1.609857543E1,5.229711533E-3,-4.912567139E-2,-3.789615631E-2
1.610862443E1,-2.209246159E-4,-4.475593567E-2,-7.392978668E-2
1.611867368E1,-1.261770725E-2,-5.665230751E-2,-1.881694794E-2
1.612872328E1,2.999874949E-2,-7.820415497E-2,4.584407806E-2
1.613877378E1,4.397043586E-2,-5.454230309E-2,-4.514694214E-3
1.614974143E1,2.710846066E-2,-6.256151199E-2,-1.340913773E-1
1.615979543E1,5.844020844E-2,-7.626795769E-2,5.443286896E-2
1.616985043E1,3.896465898E-2,-9.314155579E-2,-7.332706451E-2
1.617990493E1,-6.200224161E-3,-5.882787704E-2,-1.193923950E-1
1.618995826E1,-4.552307725E-2,-7.952594757E-2,-8.917808533E-3
1.620001226E1,-2.415201068E-2,-1.256780624E-1,-3.409385681E-3
1.621006546E1,5.217346549E-2,-1.390633583E-1,6.628990173E-3
1.622011813E1,9.070667624E-2,-8.236336708E-2,-1.030158997E-2
1.623105943E1,6.016245484E-2,-4.225158691E-2,1.985454559E-2
1.624111043E1,-5.758494139E-3,8.674144745E-3,-4.857730865E-2
1.625116043E1,-5.117070675E-2,3.638482094E-2,-7.611083984E-2
1.626121143E1,-4.056465626E-2,-5.792856216E-3,-3.597164154E-2
1.627126376E1,-1.099839807E-2,-2.904415131E-3,4.865646362E-3
1.628131702E1,3.509014845E-2,-4.762291908E-2,3.213882446E-4
1.629136962E1,4.050022364E-2,-4.004716873E-2,2.823829651E-3
1.630142212E1,6.751212478E-2,-7.119655609E-3,4.981994629E-3
1.631237343E1,2.765548229E-2,-1.549029350E-2,-3.856563568E-2
1.632242643E1,1.924276352E-3,-1.696825027E-2,-2.953243256E-2
1.633247543E1,-1.655888557E-2,-6.580328941E-2,-5.383491516E-2
1.634252593E1,-5.412492156E-2,-9.974837303E-2,5.838394165E-3
1.635257660E1,-6.054654717E-2,-9.723901749E-2,-8.520126343E-3
1.636262785E1,-3.578260541E-2,-9.952449799E-2,-2.527713776E-2
1.637267885E1,5.460143089E-3,-1.024227142E-1,-6.322860718E-3
1.638272935E1,1.767712831E-2,-7.888054848E-2,-2.323341370E-2
1.639369543E1,2.523842454E-2,-9.600019455E-2,-1.379776001E-2
1.640374743E1,2.335706353E-2,-8.444738388E-2,-1.875495911E-2
1.641379843E1,4.902154207E-3,-6.808233261E-2,-2.610492706E-2
1.642384943E1,-3.977566957E-3,-4.935717583E-2,-1.670742035E-2
1.643390043E1,-1.784634590E-2,-3.775453568E-2,-9.918212891E-5
1.644395243E1,-8.101284504E-3,-2.138876915E-2,-3.855133057E-2
1.645400423E1,2.075713873E-2,-2.136969566E-2,1.891136169E-2
1.646405623E1,1.873800159E-2,-5.271673203E-2,-2.730369568E-3
1.647422409E1,3.612914681E-2,-6.258368492E-2,-6.031894684E-2
1.648437759E1,3.385302424E-2,-5.573081970E-2,-1.973819733E-2
1.649452026E1,2.777916193E-2,-1.349854469E-2,3.987121582E-2
1.650465476E1,7.218688726E-3,-1.083207130E-2,-8.051681519E-2
1.651478248E1,7.118523121E-3,-8.111000061E-3,-4.292488098E-2
1.652490406E1,5.105942488E-3,-2.111387253E-2,4.288959503E-2
1.653502060E1,5.290508270E-4,-4.566431046E-2,-1.000308990E-2
1.654513239E1,2.929925919E-3,-5.855846405E-2,-4.384326935E-2
1.655627343E1,-4.500120878E-3,-4.242563248E-2,-5.362701416E-2
1.656632043E1,1.223531365E-2,-5.466914177E-2,-2.259731293E-2
1.657636943E1,5.061063170E-2,-5.952906609E-2,8.500099182E-3
1.658641643E1,4.347610474E-2,-6.464219093E-2,-1.191139221E-3
1.659646277E1,2.615511417E-3,-8.394312859E-2,5.946159363E-3
1.660650902E1,-1.412782073E-2,-8.383083344E-2,-3.592491150E-3
1.661655502E1,-3.294935822E-2,-8.593297005E-2,-1.786994934E-2
1.662660168E1,2.020093799E-2,-9.754157066E-2,-2.255344391E-2
1.663755543E1,1.552930474E-2,-8.756160736E-2,-3.199481964E-2
1.664760043E1,1.072824001E-2,-7.511830330E-2,-1.028251648E-2
1.665764743E1,1.300841570E-2,-6.265878677E-2,4.258155823E-3
1.666769393E1,1.777291298E-2,-6.248378754E-2,-2.441024780E-2
1.667774060E1,-1.530945301E-3,-6.505084038E-2,-1.728153229E-2
1.668778760E1,-1.132991910E-2,-7.482767105E-2,-2.691841125E-2
1.669783520E1,-1.812458038E-3,-7.252717018E-2,-2.215957642E-2
1.670788270E1,-9.043425322E-3,-5.337786674E-2,-3.005981445E-3
1.671883643E1,-4.174202681E-3,-4.899454117E-2,-3.427410126E-2
1.672888843E1,1.991763711E-2,-4.955601692E-2,-2.968788147E-2
1.673893543E1,1.995357871E-2,-2.851343155E-2,-8.316993713E-3
1.674898243E1,7.977843285E-3,-2.182626724E-2,-2.285480499E-2
1.675902976E1,1.262068748E-2,-5.645036697E-3,-2.305030823E-2
1.676907702E1,1.012313366E-2,-3.487014771E-2,-3.279399872E-2
1.677912402E1,1.009690762E-2,-3.271031380E-2,-3.766250610E-2
1.678917102E1,-2.006649971E-3,-7.345628738E-2,-3.767204285E-2
1.680014443E1,-9.422183037E-3,-7.553100586E-2,-2.318668365E-2
1.681019943E1,-1.201453805E-2,-8.227562904E-2,-1.105403900E-2
1.682025243E1,3.097918630E-2,-7.748579979E-2,-1.104927063E-2
1.683030443E1,3.333848715E-2,-7.082700729E-2,-3.038215637E-2
1.684035510E1,2.617669106E-2,-8.376836777E-2,-3.551101685E-2
1.685040485E1,2.857983112E-2,-6.982398033E-2,-3.086853027E-2
1.686045385E1,1.686617732E-2,-3.589415550E-2,-4.989051819E-2
1.687050251E1,-6.505727768E-3,-4.697346687E-2,-5.439281464E-2
1.688146443E1,-2.272570133E-2,-6.035590172E-2,1.775074005E-2
1.689151643E1,3.750205040E-3,-7.676506042E-2,6.335639954E-2
1.690156743E1,4.207760096E-3,-2.936744690E-2,-1.116085052E-1
1.691161893E1,2.708619833E-2,-5.429506302E-2,2.914428711E-3
1.692167026E1,3.473708034E-2,-8.509159088E-2,7.639598846E-2
1.693172226E1,1.348432899E-2,-6.872963905E-2,-1.448516846E-1
1.694177426E1,-2.887758613E-2,-5.086874962E-2,-1.046304703E-1
1.695182610E1,-5.876418948E-2,-8.543562889E-2,3.714275360E-2
1.696199324E1,3.000205755E-2,-1.241707802E-1,3.792095184E-2
1.697214574E1,5.895653367E-2,-9.482049942E-2,-7.260322571E-3
1.698228718E1,6.198263168E-2,-6.761956215E-2,-2.925872803E-3
1.699241938E1,2.959877253E-3,-1.124501228E-2,-1.124858856E-2
1.700254420E1,-1.185691357E-2,1.567959785E-2,-8.929729462E-2
1.701266270E1,-3.957834840E-2,2.021002769E-2,-5.913448334E-2
1.702277586E1,-1.441791654E-2,-2.481460571E-2,-1.114273071E-2
1.703288450E1,-3.902196884E-3,-4.511046410E-2,2.995109558E-2
1.704398543E1,4.018211365E-2,-6.361842155E-2,3.252696991E-2
1.705403443E1,4.599487782E-2,-7.124328613E-2,-1.188278198E-3
1.706408643E1,3.024780750E-2,-3.203201294E-2,-4.142761230E-3
1.707413693E1,2.816569805E-2,-2.200651169E-2,-5.031871796E-2
1.708418560E1,-7.410436869E-3,-6.907892227E-2,-4.130268097E-2
1.709423410E1,-3.844591975E-2,-7.919096947E-2,-1.276111603E-2
1.710428310E1,-2.363988757E-2,-1.124887466E-1,4.055023193E-3
1.711433176E1,-3.278523684E-2,-1.097228527E-1,-1.977729797E-2
1.712529443E1,-1.301884651E-2,-1.117870808E-1,-4.363155365E-2
1.713534243E1,1.493602991E-3,-9.693098068E-2,-2.431488037E-2
1.714538843E1,-1.313960552E-2,-9.363031387E-2,-2.398967743E-2
1.715543343E1,-1.174241304E-3,-9.508728981E-2,-1.648235321E-2
1.716547743E1,8.616745472E-3,-9.177303314E-2,-2.814483643E-2
1.717552068E1,-3.167420626E-3,-9.367275238E-2,-1.840496063E-2
1.718556388E1,1.348695159E-2,-3.096413612E-2,-3.021240234E-2
1.719560705E1,-1.080483198E-3,-2.541089058E-2,-8.391380310E-3
1.720654143E1,1.038569212E-2,8.930683136E-3,-2.245044708E-2
1.721658443E1,1.722845435E-2,-7.225275040E-3,-5.467414856E-3
1.722662943E1,2.670922875E-2,-3.831148148E-2,8.914947510E-3
1.723667443E1,4.844948649E-2,-3.626585007E-2,-4.388618469E-2
1.724672010E1,5.265307426E-2,-3.695583344E-2,1.814937592E-2
1.725676710E1,2.006331086E-2,-1.418161392E-2,-6.134033203E-3
1.726681450E1,-5.529224873E-4,-4.058599472E-3,-9.050655365E-2
1.727686250E1,6.717413664E-3,-3.081321716E-3,1.673889160E-2
1.728781043E1,-4.875272512E-3,-2.739191055E-2,5.011463165E-2
1.729786243E1,2.319961786E-3,-4.951238632E-2,-1.951694489E-2
1.730791443E1,-3.175437450E-4,-6.487917900E-2,-7.252502441E-2
1.731796593E1,4.010719061E-2,-3.672027588E-2,-5.355644226E-2
1.732801627E1,3.760191798E-2,-4.383373260E-2,-1.761341095E-2
1.733806627E1,3.003528714E-2,-7.233595848E-2,-3.152847290E-3
1.734811626E1,-8.880674839E-3,-7.937097549E-2,-3.180694580E-2
1.735816643E1,-1.894247532E-2,-8.402752876E-2,-1.019191742E-2
1.736911943E1,-3.329801559E-2,-8.332085609E-2,-1.473808289E-2
1.737916543E1,-9.135484695E-3,-5.129671097E-2,-3.119564056E-2
1.738921043E1,2.678081393E-2,-6.976604462E-2,-1.898860931E-2
1.739925543E1,1.703876257E-2,-6.897974014E-2,-2.828598022E-2
1.740929943E1,5.984306335E-5,-6.816339493E-2,-3.517627716E-2
1.741934418E1,-2.574741840E-3,-7.686948776E-2,-3.007698059E-2
1.742938898E1,-4.544556141E-4,-7.127451897E-2,-2.020931244E-2
1.743943365E1,-7.147192955E-4,-8.969593048E-2,-2.712726593E-2
1.745039543E1,1.111525297E-2,-5.565047264E-2,-2.215003967E-2
1.746043643E1,6.303101778E-3,-6.494402885E-2,-1.726245880E-2
1.747048343E1,2.064660192E-2,-5.514287949E-2,-1.478862762E-2
1.748052893E1,2.789425850E-2,-2.394628525E-2,-1.476764679E-2
1.749057360E1,-9.640157223E-4,-3.843140602E-2,-1.001453400E-2
1.750061860E1,-5.869328976E-3,-2.671170235E-2,-1.728057861E-2
1.751066340E1,8.380800486E-3,-2.715754509E-2,-2.221775055E-2
1.752070890E1,-1.329523325E-2,-1.323676109E-2,-2.715396881E-2
1.753087047E1,2.007263899E-2,-4.226350784E-2,-5.702018738E-3
1.754101747E1,1.762065291E-2,-4.949784279E-2,-1.290035248E-2
1.755115336E1,1.533737779E-2,-5.671930313E-2,6.235122681E-3
1.756128026E1,2.508533001E-2,-4.491305351E-2,-5.800247192E-3
1.757139971E1,-5.968600512E-3,-4.509353638E-2,-1.783752441E-2
1.758151288E1,-2.038016915E-2,-7.138490677E-2,-3.697395325E-2
1.759162080E1,-1.066634059E-2,-7.331800461E-2,-4.160785675E-2
1.760172416E1,1.803585887E-2,-9.682965279E-2,-2.709293365E-2
1.761188016E1,1.556077600E-2,-7.947492599E-2,-1.491165161E-2
1.762202941E1,3.944024444E-2,-9.360456467E-2,-1.243400574E-2
1.763217270E1,3.921896219E-2,-7.223391533E-2,-4.360961914E-2
1.764231076E1,2.697247267E-2,-7.743883133E-2,-3.895187378E-2
1.765244391E1,2.652391791E-2,-4.890823364E-2,-1.984882355E-2
1.766257286E1,-1.452422142E-2,-5.594801903E-2,-1.260185242E-2
1.767269782E1,-1.459389925E-2,-5.546402931E-2,-5.313205719E-2
1.768281913E1,-3.341376781E-2,-5.942368507E-2,-9.764671326E-3
1.769297239E1,1.449790597E-2,-5.152630806E-2,5.512523651E-2
1.770312106E1,2.426543832E-2,-3.250694275E-2,-7.421684265E-2
1.771326550E1,1.603546739E-2,-6.210541725E-2,-7.697105408E-2
1.772340615E1,1.446390152E-2,-6.874418259E-2,9.234142303E-2
1.773354345E1,-1.377227902E-2,-5.719161034E-2,-1.265249252E-1
1.774367748E1,-5.297750235E-2,-2.497768402E-2,-1.342248917E-1
1.775380841E1,-4.882520437E-2,-4.234457016E-2,2.922725677E-2
1.776393645E1,-2.884447575E-3,-1.118855476E-1,3.967857361E-2
1.777522543E1,7.415795326E-2,-1.227078438E-1,-5.388259888E-4
1.778526843E1,9.177824855E-2,-7.834339142E-2,-2.480316162E-2
1.779531943E1,5.181398988E-2,-2.631449699E-2,-4.234313965E-3
1.780536893E1,-1.841828227E-2,8.262157440E-3,-4.618835449E-2
1.781541760E1,-4.146116972E-2,5.719184875E-3,-5.428791046E-2
1.782546660E1,-2.300679684E-2,-1.806974411E-3,-2.575111389E-2
1.783551580E1,1.453912258E-2,-3.890109062E-2,-6.250381470E-3
1.784556530E1,6.389656663E-2,-7.813620567E-2,1.374244690E-3
1.785651943E1,4.345181584E-2,-4.875731468E-2,-8.026123047E-3
1.786656843E1,3.943818808E-2,-2.832746506E-2,-2.041625977E-2
1.787661543E1,1.113879681E-2,-1.546692848E-2,-5.207920074E-2
1.788666243E1,-3.903222084E-2,-4.788804054E-2,-4.774284363E-2
1.789670876E1,-6.297644973E-2,-8.663415909E-2,-2.874088287E-2
1.790675576E1,-7.464790344E-2,-9.362745285E-2,-2.868747711E-2
1.791680276E1,-1.869493723E-2,-8.842062950E-2,-4.055404663E-2
1.792685043E1,3.570616245E-3,-9.983563423E-2,-9.267807007E-3
1.793779643E1,1.577517390E-2,-8.713507652E-2,-3.775596619E-2
1.794784243E1,-2.007907629E-2,-9.573006630E-2,-2.305507660E-2
1.795788443E1,6.139874458E-3,-8.257937431E-2,-1.095771790E-3
1.796792693E1,-1.575535536E-2,-8.218884468E-2,-3.339767456E-3
1.797796893E1,5.387336016E-3,-8.927893639E-2,-3.290176392E-3
1.798801168E1,2.426481247E-2,-7.902693748E-2,-1.980495453E-2
1.799805468E1,1.907920837E-2,-3.766274452E-2,-1.716423035E-2
1.800809768E1,2.575352788E-2,-1.062631607E-2,-2.887248993E-2
1.801825625E1,3.014466166E-2,-1.518201828E-2,3.347492218E-2
1.802840063E1,3.260141611E-2,-2.902698517E-2,-2.380943298E-2
1.803853418E1,4.046460986E-2,-5.051541328E-2,-1.663398743E-2
1.804865908E1,2.089446783E-2,-5.791950226E-2,9.642601013E-3
1.805877654E1,-6.660401821E-3,-5.634379387E-2,2.856636047E-2
1.806888820E1,-8.000642061E-3,-4.590535164E-2,-8.921909332E-2
1.807899474E1,2.779024839E-2,-3.482317924E-2,-2.009010315E-2
1.808909688E1,3.757056594E-2,-3.215742111E-2,3.027248383E-2
1.809925042E1,-1.274278760E-2,-3.193235397E-2,1.621246338E-3
1.810939698E1,-7.947534323E-3,-4.424691200E-2,-3.201580048E-2
1.811953745E1,6.339043379E-3,-4.717588425E-2,-6.811046600E-2
1.812967261E1,8.777678013E-3,-5.180311203E-2,-3.214359283E-2
1.813980319E1,3.803193569E-3,-6.311392784E-2,-1.514911652E-2
1.814992969E1,-1.106792688E-2,-1.030616760E-1,-1.965427399E-2
1.816005260E1,-9.135991335E-3,-1.189453602E-1,-3.369617462E-2
1.817017210E1,-1.651060581E-2,-1.058802605E-1,-1.655101776E-2
1.818032366E1,1.719057560E-2,-9.012556076E-2,-1.607894897E-2
1.819047083E1,1.493722200E-2,-6.244754791E-2,-2.998542786E-2
1.820061379E1,-4.139631987E-3,-5.653309822E-2,-3.199386597E-2
1.821075286E1,1.965159178E-2,-7.214617729E-2,-1.961898804E-2
1.822088838E1,7.360219955E-3,-9.006547928E-2,-2.384185791E-5
1.823102063E1,-3.128930926E-2,-8.436369896E-2,-2.363586426E-2
1.824114991E1,6.745427847E-3,-7.166790962E-2,-5.210208893E-2
1.825127634E1,3.836870193E-3,-6.624913216E-2,-2.313041687E-2
1.826258243E1,-3.526121378E-3,-4.651093483E-2,-2.291965485E-2
1.827262743E1,1.566332579E-2,-2.938294411E-2,-1.321792603E-2
1.828267043E1,1.585742831E-2,-1.255297661E-2,-2.756595612E-2
1.829271493E1,2.092465758E-2,-1.281142235E-2,-1.090812683E-2
1.830275826E1,2.130582929E-2,-3.716540337E-2,-2.303886414E-2
1.831280252E1,1.437410712E-2,-3.505253792E-2,-2.314758301E-2
1.832284612E1,7.119089365E-3,-3.041052818E-2,-3.516674042E-2
1.833288978E1,-2.619177103E-3,-4.729914665E-2,-3.041553497E-2
1.834384143E1,1.386180520E-2,-6.165766716E-2,-1.364231110E-2
1.835388443E1,1.351752877E-2,-6.390619278E-2,-2.554702759E-2
1.836393043E1,1.317769289E-3,-7.795023918E-2,-3.260803223E-2
1.837397593E1,3.935787082E-2,-7.024717331E-2,-2.044582367E-2
1.838402060E1,1.264816523E-2,-8.891725540E-2,-2.983856201E-2
1.839406610E1,1.475554705E-2,-6.654500961E-2,-8.106231689E-4
1.840411050E1,-1.181176305E-2,-4.671168327E-2,6.619453430E-3
1.841415516E1,5.151152611E-3,-7.789707184E-2,1.616573334E-2
1.842431502E1,1.247742772E-2,-6.127715111E-2,-2.937889099E-2
1.843446102E1,-1.965135336E-3,-7.301807404E-2,-3.168869019E-2
1.844459602E1,2.607822418E-3,-5.796933174E-2,-1.947212219E-2
1.845472192E1,-2.495557070E-3,-6.672883034E-2,-4.550933838E-2
1.846484047E1,1.759827137E-3,-9.481167793E-2,-3.329086304E-2
1.847495322E1,1.338782907E-2,-7.733249664E-2,-4.296302795E-3
1.848506060E1,2.252507210E-2,-8.623647690E-2,-8.831024170E-3
1.849516346E1,4.126507044E-2,-7.413053513E-2,-3.031444550E-2
1.850531586E1,2.890291810E-2,-7.680964470E-2,-3.039455414E-2
1.851546154E1,1.887241006E-2,-6.514978409E-2,-8.935928345E-3
1.852560125E1,4.243582487E-3,-6.024098396E-2,-1.845932007E-2
1.853573580E1,-1.252132654E-2,-2.835917473E-2,-4.213714600E-2
1.854586565E1,-2.667754889E-2,-5.600476265E-2,-2.022171021E-2
1.855599125E1,-7.547080517E-3,-6.239318848E-2,4.230403900E-2
1.856611320E1,3.068578243E-2,-2.869963646E-2,-7.015895844E-2
1.857623170E1,2.865976095E-2,-3.882145882E-2,-1.110658646E-1
1.858744643E1,5.381685495E-2,-6.391620636E-2,1.111392975E-1
1.859749143E1,8.089989424E-3,-6.908273697E-2,-2.867603302E-2
1.860753543E1,-2.400928736E-2,-4.468631744E-2,-1.586980820E-1
1.861758143E1,-6.238281727E-2,-4.867076874E-2,-9.976387024E-3
1.862762643E1,-3.046259284E-2,-1.089110374E-1,1.233959198E-2
1.863767218E1,2.754870057E-2,-1.074719429E-1,-1.102161407E-2
1.864771838E1,7.612732053E-2,-9.142398834E-2,-4.231739044E-2
1.865776505E1,4.569953680E-2,-7.000160217E-2,-7.203102112E-3
1.866873643E1,1.086649299E-2,-1.106405258E-2,-1.547622681E-2
1.867877943E1,-5.871683359E-3,-4.329204559E-3,-3.082656860E-2
1.868882043E1,-4.553735256E-3,-1.044106483E-2,-1.458358765E-2
1.869886493E1,-1.502543688E-2,-5.107712746E-2,2.367877960E-2
1.870892493E1,2.461355925E-2,-4.314017296E-2,1.669788361E-2
1.871898243E1,2.554243803E-2,-4.247784615E-2,-9.449958801E-3
1.872903783E1,2.136167884E-2,-1.858210564E-2,-2.385807037E-2
1.873909183E1,3.015756607E-3,-1.447176933E-2,-3.610038757E-2
1.875004343E1,1.083448529E-2,-4.178500175E-2,-2.688884735E-2
1.876008843E1,-2.954193950E-2,-5.168747902E-2,-3.659343719E-2
1.877013543E1,-3.405985236E-2,-7.330489159E-2,-7.898330688E-3
1.878018143E1,-3.623491526E-2,-1.018829346E-1,-1.503753662E-2
1.879022577E1,-3.356951475E-2,-8.747220039E-2,-4.855251312E-2
1.880027127E1,-1.907625794E-2,-9.442305565E-2,-1.017093658E-2
1.881031686E1,-4.675090313E-3,-8.200931549E-2,-7.625579834E-3
1.882036270E1,1.207324862E-2,-1.099228859E-1,-1.592636108E-4
1.883132143E1,7.510542870E-3,-8.983469009E-2,-2.240180969E-3
1.884136743E1,1.962330937E-2,-1.036217213E-1,-1.641178131E-2
1.885141343E1,7.924526930E-3,-6.974792480E-2,-3.545475006E-2
1.886145943E1,7.104873657E-4,-3.824925423E-2,-1.616954803E-2
1.887150543E1,1.268497109E-2,-2.101063728E-2,-3.276252747E-2
1.888155193E1,1.733538508E-2,-1.316165924E-2,4.887676239E-2
1.889159833E1,-4.082083702E-3,-2.938437462E-2,-5.628681183E-2
1.890164467E1,6.119579077E-3,-5.304098129E-2,-6.100368500E-2
1.891258443E1,6.292372942E-3,-4.782366753E-2,-1.776695251E-2
1.892263243E1,1.764100790E-2,-4.818844795E-2,5.156517029E-2
1.893268043E1,-5.086988211E-3,-5.194497108E-2,-5.659389496E-2
1.894272893E1,9.112924337E-3,-3.174543381E-2,-3.550624847E-2
1.895277560E1,3.091973066E-2,-4.897546768E-2,2.896308899E-2
1.896282135E1,2.164214849E-2,-5.416679382E-2,2.641487122E-2
1.897286755E1,-1.184701920E-2,-7.636642456E-2,-7.330894470E-3
1.898291388E1,1.232290268E-2,-6.289863586E-2,-5.553436279E-2
1.899385443E1,1.248803735E-2,-4.178094864E-2,-5.090332031E-2
1.900390543E1,1.730331779E-2,-5.143618584E-2,-3.656578064E-2
1.901395543E1,1.235556602E-2,-7.736587524E-2,-2.899169922E-3
1.902400393E1,1.665055752E-4,-7.220268250E-2,-1.233577728E-2
1.903405093E1,-4.659056664E-3,-5.028223991E-2,-2.346038818E-4
1.904409743E1,-1.977503300E-3,-6.441974640E-2,-1.932239532E-2
1.905414363E1,-1.379075646E-2,-4.993796349E-2,-2.168273926E-2
1.906418963E1,-1.613169909E-2,-5.445098877E-2,-4.074478149E-2
1.907514643E1,-4.122942686E-3,-6.142115593E-2,-1.912498474E-2
1.908519143E1,1.516622305E-2,-8.973097801E-2,-4.618644714E-3
1.909523743E1,1.529863477E-2,-9.888339043E-2,3.099441528E-4
1.910528393E1,2.030175924E-2,-9.631967545E-2,-6.823539734E-3
1.911533026E1,1.786488295E-2,-7.223367691E-2,-3.550243378E-2
1.912537677E1,1.307108998E-2,-6.970906258E-2,-3.545570374E-2
1.913542336E1,6.012052298E-3,-5.275297165E-2,-9.057044983E-3
1.914547053E1,-1.064673066E-2,-2.636170387E-2,-2.340698242E-2
1.915641343E1,-1.521965861E-2,-5.309724808E-2,-2.355575562E-2
1.916645943E1,-1.005250216E-2,-6.310439110E-2,-2.371978760E-2
1.917650443E1,9.479165077E-3,-2.032256126E-2,-1.905727386E-2
1.918655093E1,1.226407290E-2,-3.735899925E-2,-2.156543732E-2
1.919659726E1,1.986920834E-2,-2.086567879E-2,-2.646541595E-2
1.920664377E1,5.790472031E-3,-4.033613205E-2,-2.644538879E-3
1.921669017E1,1.561707258E-2,-4.308962822E-2,2.008438110E-3
1.922673600E1,-2.254968882E-2,-6.266951561E-2,-5.327224731E-3
1.923689686E1,1.400321722E-3,-6.082844734E-2,-2.227973938E-2
1.924704360E1,-1.246064901E-3,-7.796120644E-2,-3.197479248E-2
1.925717994E1,3.194081783E-2,-7.814121246E-2,-2.723312378E-2
1.926730764E1,2.689060569E-2,-6.357598305E-2,-3.672981262E-2
1.927742800E1,4.106104374E-2,-5.390143394E-2,-2.711105347E-2
1.928754242E1,1.461109519E-2,-6.106805801E-2,-1.991653442E-2
1.929765196E1,1.209232211E-2,-3.699636459E-2,-1.747322083E-2
1.930775731E1,7.181286812E-3,-5.854821205E-2,-2.465152740E-2
1.931791371E1,-1.604259014E-4,-6.306409836E-2,-7.790565491E-3
1.932806346E1,6.711602211E-3,-9.629487991E-2,1.147460938E-2
1.933820729E1,6.118834019E-3,-7.690024376E-2,-2.193260193E-2
1.934834590E1,2.873510122E-3,-7.678914070E-2,-1.946258545E-2
1.935848000E1,-1.263904572E-2,-9.346866608E-2,-3.614521027E-2
1.936860965E1,1.770451665E-2,-6.187558174E-2,-5.270767212E-2
1.937873532E1,3.158777952E-2,-4.687476158E-2,-5.725383759E-2
1.938885736E1,3.342077136E-2,-4.146480560E-2,-3.307151794E-2
1.939901101E1,6.335645914E-3,-4.857563972E-2,-4.019641876E-2
1.940916010E1,-1.583379507E-2,-6.830072403E-2,-2.360820770E-2
1.941930506E1,-9.171634912E-3,-6.648945808E-2,-2.378559113E-2
1.942944617E1,-1.680806279E-2,-4.008293152E-2,-1.655960083E-2
1.943958373E1,-2.186825871E-2,-3.441333771E-2,-4.497241974E-2
1.944971805E1,-4.634559155E-4,-5.681610107E-2,-3.725051880E-2
1.945984939E1,8.638948202E-3,-7.223081589E-2,2.548599243E-2
1.946997799E1,7.912606001E-3,-6.440114975E-2,1.137828827E-2
1.948126243E1,-2.361914515E-2,-2.835392952E-2,-1.465740204E-1
1.949131443E1,3.455281258E-3,-8.131003380E-2,5.201244354E-2
1.950136343E1,3.666695952E-2,-1.014959812E-1,1.575660706E-2
1.951141293E1,5.795389414E-3,-8.099150658E-2,-1.881246567E-1
1.952146193E1,-3.514012694E-2,-6.537556648E-2,-2.008628845E-2
1.953151118E1,-7.343477011E-2,-8.379030228E-2,-2.607631683E-2
1.954156058E1,4.964202642E-3,-9.011936188E-2,-1.523494720E-2
1.955161042E1,6.965339184E-2,-8.831596375E-2,-4.323196411E-2
1.956257743E1,9.627628326E-2,-5.278158188E-2,-1.726150513E-4
1.957262643E1,7.955154777E-2,-1.649522781E-2,1.628875732E-3
1.958267743E1,6.024032831E-3,-1.777172089E-3,-6.185531616E-3
1.959272643E1,-4.225909710E-3,-1.246905327E-2,4.134273529E-2
1.960277343E1,-1.182019711E-2,-4.830479622E-2,1.265907288E-2
1.961281993E1,2.133926749E-2,-5.011272430E-2,-2.064037323E-2
1.962286573E1,3.550341725E-2,-2.291941643E-2,-1.793956757E-2
1.963291173E1,5.657222867E-2,-1.770853996E-2,-1.298141479E-2
1.964385943E1,1.785635948E-2,-1.762580872E-2,-1.293468475E-2
1.965390643E1,2.448946238E-2,-2.508330345E-2,-1.300430298E-2
1.966395443E1,-9.777367115E-3,-5.159235001E-2,-2.021217346E-2
1.967400143E1,-3.709501028E-2,-6.598567963E-2,4.686164856E-2
1.968404843E1,-4.357123375E-2,-8.778333664E-2,2.770042419E-2
1.969409518E1,-4.254716635E-2,-9.597659111E-2,-2.286434174E-2
1.970414218E1,8.904337883E-3,-8.073163033E-2,-5.685234070E-2
1.971418968E1,3.166329861E-2,-7.942581177E-2,-5.238533020E-2
1.972513443E1,3.024527431E-2,-9.642076492E-2,-6.676483154E-2
1.973518043E1,3.818872571E-2,-9.826803207E-2,-4.734325409E-2
1.974523143E1,7.589429617E-3,-1.096594334E-1,-8.746147156E-3
1.975528193E1,8.079648018E-3,-1.045448780E-1,-2.051162720E-2
1.976533193E1,8.648395538E-3,-7.566404343E-2,-2.994918823E-2
1.977538193E1,2.126693726E-3,-3.243851662E-2,-4.418563843E-2
1.978543193E1,2.431786060E-2,-2.222108841E-2,8.780193329E-2
1.979548160E1,1.111856103E-2,-1.878952980E-2,-1.712226868E-2
1.980643443E1,3.443509340E-3,-4.716706276E-2,-2.415943146E-2
1.981648043E1,2.605795860E-3,-5.193781853E-2,-4.565906525E-2
1.982652943E1,8.612990379E-3,-5.452847481E-2,1.418495178E-2
1.983657743E1,1.149863005E-2,-4.320979118E-2,-4.340839386E-2
1.984662577E1,2.666458488E-2,-2.516651154E-2,-4.610919952E-2
1.985667326E1,5.004769564E-2,-2.808237076E-2,-5.561828613E-3
1.986671966E1,3.059083223E-2,-4.982113838E-2,6.357192993E-3
1.987676583E1,8.425086737E-3,-4.064273834E-2,-3.326416016E-3
1.988772243E1,-4.400283098E-3,-4.370999336E-2,-4.421901703E-2
1.989777043E1,-7.536739111E-3,-3.202795982E-2,-4.188823700E-2
1.990781743E1,5.159616470E-2,-4.861640930E-2,-3.939819336E-2
1.991786443E1,5.312159657E-2,-3.838229179E-2,-1.997375488E-2
1.992791110E1,2.555146813E-2,-8.305048943E-2,1.920700073E-3
