"Time (s)","Linear Acceleration x (m/s^2)","Linear Acceleration y (m/s^2)","Linear Acceleration z (m/s^2)"
7.089917600E-2,1.978448331E-1,1.842958033E-1,-2.784080505E-1
7.599917600E-2,2.164609730E-1,9.209704399E-2,-2.930660248E-1
8.109917600E-2,1.883452237E-1,-8.494794369E-3,-2.672071457E-1
8.619917600E-2,1.922812760E-1,-7.458835840E-2,-2.410125732E-1
9.129917600E-2,2.003906518E-1,-1.338480115E-1,-2.298126221E-1
9.639917600E-2,2.280575931E-1,-1.704429388E-1,-2.167491913E-1
1.014991760E-1,2.788659334E-1,-1.881194115E-1,-2.458248138E-1
1.065991760E-1,3.042240143E-1,-1.743845344E-1,-3.047122955E-1
1.116985510E-1,3.143379688E-1,-1.374759078E-1,-3.307638168E-1
1.167375610E-1,3.132371008E-1,-9.297126532E-2,-3.597850800E-1
1.217565190E-1,2.849951982E-1,-4.221135378E-2,-3.677082062E-1
1.267754780E-1,2.751362026E-1,1.353490353E-2,-3.428220749E-1
1.317944360E-1,2.831291854E-1,5.499851704E-2,-3.723526001E-1
1.368133940E-1,2.882051766E-1,1.091250181E-1,-3.863792419E-1
1.418323530E-1,2.553724349E-1,1.137416959E-1,-4.130973816E-1
1.468513110E-1,2.082738578E-1,1.191171408E-1,-4.221134186E-1
1.518702690E-1,2.927770913E-1,1.033139825E-1,-3.932714462E-1
1.568892280E-1,1.230917722E-1,8.214038610E-2,-3.011798859E-1
1.619081860E-1,-3.063801676E-2,5.920344591E-2,-3.293981552E-1
1.669271440E-1,-9.055206925E-2,3.594046831E-2,-4.150009155E-1
1.719461030E-1,-1.254537553E-1,3.564149141E-2,-4.345693588E-1
1.769650610E-1,-1.708547324E-1,3.204703331E-2,-3.854637146E-1
1.819840190E-1,-1.831688434E-1,2.284598351E-2,-3.683395386E-1
1.870029780E-1,-1.124796048E-1,4.635751247E-3,-3.775777817E-1
1.920219360E-1,1.343552768E-2,-5.484026670E-2,-4.461832047E-1
1.970408940E-1,6.221917272E-2,-9.969103336E-2,-5.679750443E-1
2.020598530E-1,1.242118180E-1,-1.453023553E-1,-6.636180878E-1
2.070788110E-1,1.941572130E-1,-1.986523867E-1,-7.712087631E-1
2.120977690E-1,-5.272957683E-2,-7.577884197E-2,-1.184679031E0
2.171167280E-1,-1.225644946E-1,5.200445652E-3,-1.426393509E0
2.221356860E-1,-1.715413332E-1,6.989169121E-2,-1.462109566E0
2.271546440E-1,-1.647727638E-1,9.521573782E-2,-1.417040825E0
2.321736030E-1,-1.788528264E-1,1.368499994E-1,-1.311653137E0
2.371925610E-1,-1.978917122E-1,1.589589119E-1,-1.211553574E0
2.422115190E-1,-1.918407679E-1,1.888125539E-1,-1.015813828E0
2.472304780E-1,-2.730802596E-1,2.094591856E-1,-8.270645142E-1
2.522494360E-1,-3.549253941E-1,2.548952401E-1,-6.567211151E-1
2.572683940E-1,-4.170181155E-1,2.799283862E-1,-5.441360474E-1
2.622873530E-1,-5.319938660E-1,3.036220074E-1,-4.657793045E-1
2.673063110E-1,-5.899822116E-1,2.919600606E-1,-4.326229095E-1
2.723252690E-1,-5.917769670E-1,2.406639159E-1,-3.509931564E-1
2.773442280E-1,-5.854507685E-1,1.609227657E-1,-2.534189224E-1
2.823631860E-1,-5.362789631E-1,5.167281628E-2,-1.330595016E-1
2.873821440E-1,-3.801940978E-1,-2.328181267E-2,-2.197265625E-2
2.924011030E-1,-2.201577127E-1,-1.156505942E-1,1.752643585E-1
2.974200610E-1,-1.145157740E-1,-1.548719406E-1,3.290376663E-1
3.024390190E-1,-1.894149184E-2,-2.256989479E-1,3.954572678E-1
3.074579780E-1,7.693522424E-2,-2.878670692E-1,4.089660645E-1
3.124808940E-1,1.703170538E-1,-3.180449009E-1,3.798637390E-1
3.174981860E-1,2.515934110E-1,-3.427922726E-1,3.888826370E-1
3.225154780E-1,3.344621062E-1,-3.810353875E-1,4.377632141E-1
3.275327690E-1,3.872658312E-1,-4.348317385E-1,5.070505142E-1
3.325501130E-1,4.235812128E-1,-4.743400812E-1,5.222330093E-1
3.375676650E-1,4.485520124E-1,-4.702059031E-1,5.183410645E-1
3.425854260E-1,4.591160119E-1,-4.499648213E-1,4.956779480E-1
3.476033940E-1,4.863694310E-1,-4.018796682E-1,4.533491135E-1
3.526216230E-1,4.875802994E-1,-3.579596281E-1,3.739519119E-1
3.576402690E-1,4.843611717E-1,-3.072142005E-1,2.816162109E-1
3.626593320E-1,4.580563307E-1,-2.363535166E-1,1.977548599E-1
3.676787590E-1,3.942920566E-1,-1.891745925E-1,1.021480560E-1
3.726983940E-1,3.730978966E-1,-1.531885862E-1,3.625392914E-2
3.777182380E-1,3.486044109E-1,-1.009901762E-1,8.001327515E-4
3.827382900E-1,3.107560277E-1,-6.930285692E-2,-5.306339264E-2
3.877585510E-1,2.682745457E-1,-4.351574183E-2,-1.038570404E-1
3.927789670E-1,2.399801314E-1,-9.367167950E-3,-1.492776871E-1
3.977993840E-1,2.099314928E-1,2.957230806E-2,-1.657676697E-1
4.028198010E-1,1.387762427E-1,3.213131428E-2,-1.962213516E-1
4.078401650E-1,6.090924144E-2,7.685834169E-2,-2.250909805E-1
4.128600610E-1,-5.704762042E-2,8.785194159E-2,-2.370109558E-1
4.178790190E-1,-1.662483215E-1,1.118345857E-1,-2.593755722E-1
4.228979780E-1,-2.549962103E-1,1.015343666E-1,-2.684030533E-1
4.279169360E-1,-3.590115607E-1,9.300559759E-2,-2.938156128E-1
4.329358940E-1,-4.193093479E-1,8.173888922E-2,-2.940053940E-1
4.379548530E-1,-4.530449510E-1,5.605965853E-2,-2.597904205E-1
4.429738110E-1,-4.675768912E-1,4.682374001E-2,-1.679067612E-1
4.479927690E-1,-4.689868987E-1,7.385736704E-2,-9.236049652E-2
4.530117280E-1,-4.459067583E-1,9.032666683E-2,-4.124355316E-2
4.580306860E-1,-3.614115119E-1,9.259498119E-2,2.480125427E-2
4.630496440E-1,-2.850205898E-1,9.123945236E-2,5.589771271E-2
4.680686030E-1,-2.029456198E-1,8.011323214E-2,9.979438782E-2
4.730875610E-1,-1.459022909E-1,8.161163330E-2,1.231908798E-1
4.781065190E-1,-1.111057699E-1,7.518452406E-2,1.120872498E-1
4.831254780E-1,-7.434999943E-2,6.665307283E-2,8.696269989E-2
4.881444360E-1,-2.594059706E-2,5.492722988E-2,6.099319458E-2
4.931633940E-1,-1.164188981E-2,4.331547022E-2,6.139183044E-2
4.981823530E-1,9.532600641E-3,5.198353529E-2,5.115413666E-2
5.032013110E-1,2.383866906E-2,3.907787800E-2,4.220485687E-2
5.082202690E-1,5.758634210E-2,3.332412243E-2,-1.761436462E-2
5.132392280E-1,1.069058776E-1,1.693129539E-2,-5.787563324E-2
5.182581860E-1,1.468075812E-1,2.559328079E-2,-7.048416138E-2
5.232771440E-1,1.749403775E-1,4.007953405E-2,-8.771610260E-2
5.282961030E-1,1.749001741E-1,7.111173868E-2,-9.293270111E-2
5.333150610E-1,1.459631920E-1,1.055499315E-1,-7.321166992E-2
5.383340190E-1,1.128508151E-1,1.550964117E-1,8.192062378E-4
5.433529780E-1,1.023063958E-1,2.195100188E-1,1.333646774E-1
5.483719360E-1,6.574404240E-2,2.712036371E-1,2.230710983E-1
5.533908940E-1,4.676359892E-2,3.196269870E-1,3.237266541E-1
5.584098530E-1,-1.599678397E-2,3.659732342E-1,3.996868134E-1
5.634288110E-1,-7.338988781E-2,3.564913571E-1,4.381475449E-1
5.684477690E-1,-1.394817382E-1,3.450081050E-1,4.726972580E-1
5.734667280E-1,-2.197844833E-1,3.206725717E-1,4.796609879E-1
5.784856860E-1,-2.885201573E-1,2.775283456E-1,4.889488220E-1
5.835046440E-1,-3.425183594E-1,2.667151690E-1,4.257917404E-1
5.885236030E-1,-3.803794980E-1,2.167268991E-1,3.738622665E-1
5.935425610E-1,-4.115532637E-1,1.265419126E-1,3.627090454E-1
5.985615190E-1,-4.611255527E-1,4.297053814E-2,3.753852844E-1
6.035804780E-1,-4.623524845E-1,3.946268559E-2,3.274135590E-1
6.085994360E-1,-3.771743774E-1,1.310319304E-1,2.703447342E-1
6.136183940E-1,-2.603871822E-1,2.278336883E-1,2.054185867E-1
6.186373530E-1,-1.924641281E-1,3.100161552E-1,1.267614365E-1
6.236563110E-1,-2.338446081E-1,3.480833769E-1,8.343696594E-3
6.286752690E-1,-3.009819388E-1,3.640184700E-1,-1.388330460E-1
6.336942280E-1,-4.289242625E-1,3.582746983E-1,-2.622947693E-1
6.387131860E-1,-5.522955656E-1,3.574996889E-1,-3.930625916E-1
6.437321440E-1,-6.428728104E-1,3.820908070E-1,-5.334205627E-1
6.487511030E-1,-7.199292183E-1,4.083738923E-1,-6.227302551E-1
6.537700610E-1,-7.356598377E-1,4.674820006E-1,-7.231464386E-1
6.587890190E-1,-7.263429165E-1,4.913192391E-1,-7.752857208E-1
6.638079780E-1,-6.375740767E-1,4.871534705E-1,-8.045520782E-1
6.688269360E-1,-5.688532591E-1,4.526423216E-1,-7.553968430E-1
6.738458940E-1,-5.154786706E-1,3.709523976E-1,-6.937847137E-1
6.788648530E-1,-4.575641751E-1,2.908113003E-1,-6.198110580E-1
6.838838110E-1,-3.903427720E-1,2.345199585E-1,-5.668258667E-1
6.889027690E-1,-3.719162345E-1,1.931415796E-1,-5.477294922E-1
6.939217280E-1,-3.333197534E-1,1.257380247E-1,-5.206832886E-1
6.989406860E-1,-3.025156558E-1,9.638553858E-2,-5.522079468E-1
7.039596440E-1,-2.702900171E-1,4.185867310E-2,-6.168413162E-1
7.089786030E-1,-2.336794138E-1,6.313693523E-2,-6.905269623E-1
7.139975610E-1,-2.173669189E-1,3.753381968E-2,-7.589120865E-1
7.190165190E-1,-2.276811898E-1,-4.957562685E-2,-8.231763840E-1
7.240354780E-1,-2.509494126E-1,-6.667011976E-2,-8.429298401E-1
7.290544360E-1,-2.216647267E-1,-2.594465017E-2,-7.638692856E-1
7.340733940E-1,-1.633486003E-1,2.955913544E-2,-6.128673553E-1
7.390923530E-1,-1.095035896E-1,6.879115105E-2,-3.999776840E-1
7.441113110E-1,-1.160202250E-1,1.270692348E-1,-1.862363815E-1
7.491302690E-1,-1.307926327E-1,1.720161438E-1,8.207321167E-3
7.541492280E-1,-1.647266597E-1,9.427931905E-2,1.882753372E-1
7.591681860E-1,-2.814987898E-1,-3.994929790E-2,3.599901199E-1
7.641871440E-1,-4.360214174E-1,-1.368013024E-1,5.007867813E-1
7.692061030E-1,-5.134587288E-1,-1.897486448E-1,6.512117386E-1
7.742250610E-1,-5.217661262E-1,-2.218437195E-1,7.660198212E-1
7.792440190E-1,-4.807170033E-1,-2.072879374E-1,8.347644806E-1
7.842629780E-1,-4.179454148E-1,-1.678678989E-1,8.340539932E-1
7.892819360E-1,-3.595391512E-1,-1.085427105E-1,8.166818619E-1
7.943008940E-1,-2.431106567E-1,-5.431789160E-2,8.112964630E-1
7.993199050E-1,-1.382402778E-1,-7.432073355E-3,7.846050262E-1
8.043390710E-1,1.796084642E-2,-2.465775609E-2,7.724685669E-1
8.093582380E-1,1.748562455E-1,5.227521062E-3,6.976718903E-1
8.143774050E-1,3.452189267E-1,5.376766622E-2,6.367959976E-1
8.193965710E-1,5.476722121E-1,9.386432171E-2,5.945577621E-1
8.244157380E-1,7.553045750E-1,1.532964110E-1,5.839309692E-1
8.294349050E-1,9.124693871E-1,2.024688423E-1,5.916271210E-1
8.344540710E-1,1.072144389E0,2.287439406E-1,5.770883560E-1
8.394732380E-1,1.156018734E0,2.122850418E-1,5.997781754E-1
8.444924050E-1,1.211098194E0,1.026115716E-1,6.984672546E-1
8.495115710E-1,1.273387551E0,-3.434331715E-2,8.522405624E-1
8.545307380E-1,1.269342422E0,-1.711459756E-1,9.240074158E-1
8.595499050E-1,1.247436643E0,-2.755542099E-1,9.369153976E-1
8.645690710E-1,1.222759724E0,-3.312549293E-1,9.234380722E-1
8.695882380E-1,1.142933488E0,-2.967832386E-1,8.635673523E-1
8.746074050E-1,1.052096844E0,-1.450787038E-1,7.338914871E-1
8.796265710E-1,9.662441611E-1,1.014877260E-1,4.600858688E-1
8.846457380E-1,8.931139112E-1,3.935844004E-1,1.216878891E-1
8.896649050E-1,8.555649519E-1,6.378310919E-1,-6.928348541E-2
8.946840710E-1,8.171103597E-1,8.046585321E-1,-1.730833054E-1
8.997032380E-1,7.638995051E-1,9.430099726E-1,-2.923164368E-1
9.047224050E-1,5.553896427E-1,1.029911041E0,-2.299337387E-1
9.097415710E-1,2.830681205E-1,1.134593964E0,6.321430206E-2
9.147607380E-1,1.247447729E-1,1.250565052E0,4.544534683E-1
9.197799050E-1,2.196314335E-1,1.217140198E0,7.409267426E-1
9.247990710E-1,3.563654423E-1,1.069290757E0,9.905118942E-1
9.298182380E-1,3.705442250E-1,8.962630033E-1,1.226526260E0
9.348374050E-1,2.366408706E-1,7.215146422E-1,1.324224472E0
9.398565710E-1,1.019275188E-1,5.245078206E-1,1.364026070E0
9.448757380E-1,-5.804282427E-2,3.840175867E-1,1.345959663E0
9.498949050E-1,-2.433395982E-1,3.572255373E-1,1.260530472E0
9.549140710E-1,-3.982445002E-1,4.107765555E-1,1.167403221E0
9.599332380E-1,-5.268101692E-1,5.070484877E-1,1.060412407E0
9.649524050E-1,-6.649861336E-1,6.261290312E-1,8.371047974E-1
9.699715710E-1,-8.314434290E-1,7.856819630E-1,5.671882629E-1
9.749907380E-1,-7.898426652E-1,8.535645008E-1,3.608226776E-1
9.800098530E-1,-5.806091428E-1,8.842027187E-1,1.978149414E-1
9.850288110E-1,-2.663470507E-1,8.865721226E-1,-2.517805099E-1
9.900477690E-1,1.501941085E-1,8.422528505E-1,-5.662269592E-1
9.950667280E-1,4.277596474E-1,8.565206528E-1,-7.751922607E-1
1.000085686E0,5.248426199E-1,9.134699106E-1,-8.308448792E-1
1.005104644E0,5.924843550E-1,8.629184961E-1,-8.011159897E-1
1.010123603E0,6.379047632E-1,7.316436768E-1,-7.212362289E-1
1.015142561E0,6.353633404E-1,5.558751822E-1,-5.391721725E-1
1.020161519E0,6.011803150E-1,3.966970444E-1,-1.955690384E-1
1.025180478E0,5.831926465E-1,3.483008146E-1,1.867399216E-1
1.030199436E0,6.317177415E-1,4.113544226E-1,4.510507584E-1
1.035218394E0,6.509686112E-1,5.779190063E-1,5.054655075E-1
1.040237353E0,5.338346362E-1,8.843694925E-1,3.963098526E-1
1.045256311E0,2.975389957E-1,1.183197856E0,1.540346146E-1
1.050275269E0,-7.218402624E-2,1.410203457E0,-1.528863907E-1
1.055294228E0,-4.014505148E-1,1.433206439E0,-3.681850433E-1
1.060313186E0,-5.599239469E-1,1.305940032E0,-4.376707077E-1
1.065332144E0,-6.475431919E-1,1.059262156E0,-6.721515656E-1
1.070351103E0,-6.712110043E-1,2.763018608E-1,-1.035714149E0
1.075370061E0,-7.395522594E-1,-3.272275925E-1,-1.384198189E0
1.080389019E0,-1.232704401E0,-2.444727421E-1,-1.465006828E0
1.085407978E0,-1.736160755E0,2.505302429E-2,-1.414952278E0
1.090426936E0,-1.875681877E0,3.075454235E-1,-1.278678894E0
1.095445894E0,-1.895477057E0,6.715528965E-1,-1.149557114E0
1.100464853E0,-1.950481892E0,1.240224600E0,-1.111935616E0
1.105483811E0,-6.256608367E-1,5.280694962E-1,-1.359456062E0
1.110502769E0,3.226372719E0,-3.344504356E0,-2.357308388E0
1.115521728E0,2.746489048E0,-3.479340553E0,-3.009823799E0
1.120540686E0,1.557656050E0,-2.492757797E0,-3.362194538E0
1.125559644E0,8.807435632E-1,-1.153409958E0,-3.240997314E0
1.130578603E0,7.329809666E-1,-1.028296947E-1,-2.898286819E0
1.135597561E0,8.136756420E-1,7.324986458E-1,-2.545746326E0
1.140616519E0,8.808411360E-1,1.278029442E0,-2.220221043E0
1.145635478E0,7.679696679E-1,1.308879137E0,-1.951183319E0
1.150654436E0,4.311329424E-1,1.268200874E0,-1.801593304E0
1.155673394E0,1.657268405E-1,4.876458645E-1,-1.867484093E0
1.160692353E0,-2.141016722E-2,-4.165270329E-1,-2.044342518E0
1.165711311E0,-1.267565787E-1,-1.082349420E0,-2.154167652E0
1.170730269E0,-2.203471363E-1,-1.417508125E0,-2.122002602E0
1.175749228E0,-4.346020520E-1,-1.476651907E0,-2.291564941E0
1.180768186E0,-7.081403732E-1,-1.362850666E0,-2.410333633E0
1.185787144E0,-1.015425444E0,-1.069817066E0,-2.608431339E0
1.190806103E0,-1.384922624E0,-6.968491077E-1,-2.654370308E0
1.195825061E0,-1.502209783E0,-5.209697485E-1,-2.496294498E0
1.200844019E0,-1.580291510E0,-4.624954462E-1,-2.059698582E0
1.205862978E0,-1.387329936E0,-8.826344609E-1,-2.073987484E0
1.210881936E0,-8.516072035E-1,-1.522919297E0,-2.030722618E0
1.215900894E0,-4.005261362E-1,-1.994401217E0,-1.803749084E0
1.220919853E0,-6.792208552E-2,-2.275274754E0,-1.527175903E0
1.225938811E0,1.591937691E-1,-2.432739973E0,-1.426463127E0
1.230957769E0,5.159482956E-1,-2.896973610E0,-1.687084675E0
1.235976728E0,7.630769014E-1,-2.925223589E0,-2.099173546E0
1.240995686E0,7.009062767E-1,-2.166269779E0,-2.121977806E0
1.246014644E0,1.159162521E-1,-1.382397056E0,-2.273348331E0
1.251033603E0,-7.950102687E-1,-8.910468817E-1,-3.037268639E0
1.256052561E0,-1.483270407E0,-4.635374546E-1,-3.524571419E0
1.261071519E0,-2.050281525E0,-2.521046400E-1,-3.872398376E0
1.266090478E0,-2.436790228E0,-2.634389400E-1,-4.015757561E0
1.271109436E0,-2.515105247E0,-3.890546560E-1,-3.901800156E0
1.276128394E0,-2.450135708E0,-6.077486873E-1,-3.581490517E0
1.281147353E0,-2.229470253E0,-8.037428260E-1,-2.973127365E0
1.286166311E0,-1.943674326E0,-1.008685946E0,-2.294553757E0
1.291185269E0,-1.696583986E0,-1.214835644E0,-2.021699905E0
1.296204228E0,-1.830886126E0,-1.432640553E0,-2.652784348E0
1.301223186E0,-2.021957874E0,-1.531504035E0,-3.335378647E0
1.306242144E0,-1.976342916E0,-1.579045296E0,-3.600525856E0
1.311261103E0,-1.635152221E0,-1.692467928E0,-3.022675514E0
1.316280061E0,-1.071084142E0,-1.733233929E0,-1.716688156E0
1.321299019E0,-3.379355371E-1,-1.617280245E0,5.416669846E-1
1.326317978E0,9.251313210E-1,-1.072088242E0,4.207145691E0
1.331336936E0,3.067702770E0,7.005035877E-2,8.176701546E0
1.336355894E0,4.205647469E0,2.383936048E-1,7.108241081E0
1.341374853E0,5.121760368E0,3.918617666E-1,7.436727524E0
1.346393811E0,4.812700272E0,3.988468945E-1,5.650433540E0
1.351412769E0,3.893837690E0,2.889322042E-1,3.416972160E0
1.356431728E0,3.025373936E0,2.325173318E-1,1.537920952E0
1.361450686E0,2.291581631E0,3.258022666E-2,1.870460510E-1
1.366469696E0,1.589407206E0,-3.824778795E-1,-5.244579315E-1
1.371488863E0,8.592168093E-1,-8.936986327E-1,-7.636098862E-1
1.376508030E0,1.724680960E-1,-1.333311439E0,-5.404825211E-1
1.381527196E0,-3.409019411E-1,-1.626400590E0,8.848190308E-2
1.386549228E0,-5.848290324E-1,-1.702817678E0,8.082275391E-1
1.391570165E0,-6.959154606E-1,-1.606691837E0,1.282116890E0
1.396587873E0,-8.237677813E-1,-1.439584613E0,1.446651459E0
1.401605582E0,-1.000811100E0,-1.202827215E0,1.471142769E0
1.406623290E0,-1.161539316E0,-9.823559523E-1,1.352534294E0
1.411641155E0,-1.181547642E0,-8.553074598E-1,1.065098763E0
1.416659228E0,-1.065752983E0,-8.587723374E-1,6.738367081E-1
1.421677509E0,-9.922714233E-1,-9.513223171E-1,5.691738129E-1
1.426695998E0,-9.886488318E-1,-1.208130240E0,9.600324631E-1
1.431714696E0,-1.112167835E0,-1.443211913E0,1.357979774E0
1.436733603E0,-1.412059307E0,-1.870187879E0,1.542283058E0
1.441752717E0,-1.560200930E0,-1.590404034E0,1.739186287E0
1.446772040E0,-1.504331350E0,-9.620239735E-1,1.879344940E0
1.451791571E0,-1.558240891E0,-4.119746983E-1,1.953231812E0
1.456811311E0,-1.696803093E0,6.537085027E-2,1.770094872E0
1.461831103E0,-1.727746487E0,5.308700800E-1,1.624336243E0
1.466850894E0,-1.559508204E0,1.034733057E0,1.669848442E0
1.471870686E0,-1.277265787E0,1.404139280E0,1.699535370E0
1.476890478E0,-9.113625288E-1,1.486802816E0,1.757525444E0
1.481910269E0,-4.103009105E-1,1.337996244E0,1.729110718E0
1.486930061E0,1.952249706E-1,1.090095758E0,1.787601471E0
1.491949853E0,7.457411289E-1,8.541103601E-1,2.078360558E0
1.496969332E0,1.191881299E0,6.526341438E-1,2.446804047E0
1.501988394E0,1.500620842E0,4.837619960E-1,2.745956421E0
1.507007353E0,1.648845792E0,2.622658610E-1,2.942764282E0
1.512026311E0,1.502235174E0,-6.654305756E-2,3.128462791E0
1.517045269E0,9.626297355E-1,-3.573121428E-1,3.646873474E0
1.522064228E0,2.531248629E-1,-5.566846728E-1,4.358483315E0
1.527083186E0,-2.955440879E-1,-6.526488066E-1,4.879522324E0
1.532102144E0,-6.052048802E-1,-6.186975241E-1,4.993303299E0
1.537121103E0,-7.749211788E-1,-4.685351849E-1,4.584115028E0
1.542140061E0,-7.991331220E-1,-3.821911216E-1,3.769358635E0
1.547159019E0,-7.570395470E-1,-4.425759315E-1,3.045525551E0
1.552177978E0,-7.574173212E-1,-5.441541672E-1,2.393239021E0
1.557196936E0,-7.747901678E-1,-5.768988132E-1,1.750244141E0
1.562215894E0,-9.306722879E-1,-5.041207671E-1,1.148749352E0
1.567234853E0,-1.082965851E0,-3.336054087E-1,6.649999619E-1
1.572253811E0,-1.148439765E0,-1.509072930E-1,2.317991257E-1
1.577272769E0,-1.128647923E0,-1.890981197E-2,-1.331176758E-1
1.582291728E0,-1.012846470E0,4.735529795E-2,-4.645853043E-1
1.587310686E0,-8.780675530E-1,7.111044228E-2,-7.734737396E-1
1.592329644E0,-6.641986370E-1,9.326922148E-2,-1.046747208E0
1.597348603E0,-4.467592835E-1,6.871093810E-2,-1.243962288E0
1.602367561E0,-2.446480244E-1,1.236886159E-2,-1.364152908E0
1.607386519E0,-9.401449561E-2,-7.652739435E-2,-1.572229385E0
1.612405478E0,6.310383976E-2,-1.220748872E-1,-1.836919785E0
1.617424436E0,2.311981767E-1,-1.235755458E-1,-2.008923531E0
1.622443394E0,4.206627309E-1,-1.025119349E-1,-2.112422943E0
1.627462353E0,5.021209121E-1,-1.708059013E-2,-2.122569084E0
1.632481311E0,5.491125584E-1,1.430897117E-1,-2.284277439E0
1.637500269E0,5.716875196E-1,3.384401202E-1,-2.494432926E0
1.642519228E0,4.946243167E-1,5.335411429E-1,-2.475992203E0
1.647538186E0,2.005653530E-1,6.802288294E-1,-2.183057785E0
1.652557144E0,-1.936987340E-1,7.455042601E-1,-1.781088829E0
1.657576103E0,-5.403650999E-1,7.086880803E-1,-1.482796669E0
1.662595061E0,-7.338814139E-1,5.584239364E-1,-1.246080399E0
1.667614019E0,-8.561349511E-1,3.573452830E-1,-8.738536835E-1
1.672632978E0,-9.644955397E-1,1.608113348E-1,-2.865753174E-1
1.677651936E0,-1.119853020E0,2.874511480E-2,1.654062271E-1
1.682670894E0,-1.300341606E0,-5.143273622E-2,4.693679810E-1
1.687689853E0,-1.394759536E0,-1.520690620E-1,6.365756989E-1
1.692708811E0,-1.391348600E0,-2.390239686E-1,7.176151276E-1
1.697727769E0,-1.301404834E0,-3.197334409E-1,6.888208389E-1
1.702746728E0,-1.057208538E0,-4.901283979E-1,5.431289673E-1
1.707765686E0,-7.450431585E-1,-7.651820183E-1,4.177122116E-1
1.712784644E0,-4.507601857E-1,-1.127359986E0,3.288526535E-1
1.717803603E0,-2.386724949E-1,-1.241885662E0,5.127658844E-1
1.722822561E0,-7.996252179E-2,-1.128576040E0,9.248476028E-1
1.727841519E0,1.504025459E-1,-9.847022295E-1,1.232927322E0
1.732860478E0,5.590267181E-1,-9.476429820E-1,1.338413239E0
1.737879436E0,1.119699240E0,-9.835656881E-1,1.325515747E0
1.742898394E0,1.622760653E0,-8.324011564E-1,1.377322197E0
1.747917353E0,2.043376684E0,-5.454934239E-1,1.410197258E0
1.752936311E0,2.375303984E0,-2.409646511E-1,1.374097824E0
1.757955269E0,2.519483089E0,4.138523340E-2,1.134307861E0
1.762974228E0,2.490936518E0,2.810345888E-1,6.376657486E-1
1.767993186E0,2.290519953E0,4.727488756E-1,3.165912628E-2
1.773012144E0,2.025082827E0,6.425791383E-1,-5.832519531E-1
1.778031103E0,1.747245550E0,8.504947424E-1,-1.085442543E0
1.783050061E0,1.475270033E0,1.037871838E0,-1.389373779E0
1.788069019E0,1.162000179E0,1.101592898E0,-1.333220482E0
1.793087978E0,7.990766764E-1,1.042104006E0,-1.173356056E0
1.798106936E0,4.815992415E-1,8.038841486E-1,-1.111727715E0
1.803125894E0,3.090327680E-1,5.081094503E-1,-9.068527222E-1
1.808144853E0,1.825379729E-1,2.748401165E-1,-4.301996231E-1
1.813163811E0,-3.673203290E-2,1.607493162E-1,1.287803650E-1
1.818182769E0,-3.319680989E-1,1.449841857E-1,5.536699295E-1
1.823201728E0,-5.407688022E-1,1.003596187E-1,6.084918976E-1
1.828220686E0,-6.287578940E-1,-9.457111359E-2,5.164947510E-1
1.833239644E0,-5.973259807E-1,-3.726497889E-1,4.524984360E-1
1.838258603E0,-5.313853025E-1,-6.708007455E-1,4.187965393E-1
1.843277561E0,-3.951565027E-1,-9.240690470E-1,5.572977066E-1
1.848296519E0,-2.067959905E-1,-1.057775259E0,7.862176895E-1
1.853315478E0,-2.802163363E-4,-1.130325317E0,9.189414978E-1
1.858334436E0,2.014858425E-1,-1.101919651E0,9.890575409E-1
1.863353394E0,3.634003401E-1,-9.817700386E-1,1.043236732E0
1.868372353E0,5.257743001E-1,-8.183138371E-1,1.094630241E0
1.873391311E0,6.709959507E-1,-6.364894509E-1,1.074044228E0
1.878410269E0,8.347272873E-1,-4.265487790E-1,1.004402161E0
1.883429228E0,9.697399139E-1,-2.787905931E-1,8.488874435E-1
1.888448290E0,1.075452685E0,-1.603904963E-1,6.865911484E-1
1.893467457E0,1.135601997E0,-7.282632589E-2,3.719778061E-1
1.898486623E0,1.134431720E0,-1.399534941E-2,1.324281693E-1
1.903505790E0,1.108316779E0,7.259458303E-2,-1.062154770E-1
1.908524957E0,1.047698021E0,1.666912436E-1,-1.206464767E-1
1.913544123E0,9.171455503E-1,2.809987068E-1,-2.606391907E-2
1.918563290E0,7.421396971E-1,4.016535878E-1,9.485244751E-2
1.923582457E0,5.497966409E-1,4.947175980E-1,6.418323517E-2
1.928601623E0,3.836666048E-1,6.008893251E-1,-2.324581146E-2
1.933620790E0,3.742789030E-1,6.758475900E-1,3.580188751E-2
1.938639957E0,2.439033687E-1,6.823689342E-1,1.681642532E-1
1.943659123E0,3.660321236E-3,5.991476774E-1,3.748674393E-1
1.948678290E0,-2.003078461E-1,4.708485603E-1,5.337562561E-1
1.953697457E0,-4.020226002E-1,3.483362794E-1,6.637554169E-1
1.958716623E0,-5.529792309E-1,2.796710134E-1,8.421058655E-1
1.963735790E0,-7.654756308E-1,2.641177177E-1,9.916839600E-1
1.968754957E0,-1.011705518E0,2.972708941E-1,1.114443779E0
1.973774123E0,-1.248765111E0,2.444365621E-1,1.253158569E0
1.978793290E0,-1.298029900E0,1.566464901E-1,1.355184555E0
1.983812457E0,-1.223712564E0,8.983540535E-2,1.326464653E0
1.988831623E0,-1.000017047E0,3.762626648E-2,1.215347290E0
1.993850790E0,-6.680339575E-1,4.492980242E-2,1.065444946E0
1.998869957E0,-2.999725342E-1,1.266929507E-1,8.736553192E-1
2.003889123E0,8.462905884E-2,2.493439913E-1,6.307926178E-1
2.008908290E0,3.760215640E-1,3.949747682E-1,3.837337494E-1
2.013927457E0,4.948124588E-1,5.412583351E-1,1.398572922E-1
2.018946623E0,5.578583479E-1,6.467475891E-1,-2.662181854E-2
2.023965790E0,5.715598464E-1,6.734986901E-1,-6.562805176E-2
2.028984957E0,6.035878062E-1,6.612964272E-1,-6.819915771E-2
2.034004123E0,6.734053493E-1,6.451325417E-1,-4.277038574E-2
2.039023290E0,7.630937099E-1,6.573233604E-1,2.847671509E-2
2.044042457E0,8.492679000E-1,6.489025354E-1,1.250553131E-1
2.049061623E0,8.757464886E-1,6.519588232E-1,2.169151306E-1
2.054080790E0,8.367432356E-1,6.076185703E-1,2.609548569E-1
2.059099957E0,7.870065570E-1,5.764338970E-1,3.061752319E-1
2.064119123E0,7.578346133E-1,5.293956995E-1,3.310556412E-1
2.069138186E0,6.742665172E-1,5.177777410E-1,3.284845352E-1
2.074157144E0,6.169669628E-1,4.768835604E-1,2.722730637E-1
2.079176103E0,5.918444991E-1,4.069460630E-1,2.234601974E-1
2.084195061E0,5.626606345E-1,3.165774345E-1,1.497774124E-1
2.089214019E0,5.465795398E-1,2.538326383E-1,4.528808594E-2
2.094232978E0,4.699880481E-1,2.022265792E-1,-3.852844238E-4
2.099251936E0,3.079138100E-1,1.816766858E-1,-2.205467224E-2
2.104270894E0,2.110744119E-1,1.431925297E-1,-1.009788513E-1
2.109292144E0,1.182876527E-1,6.289792061E-2,-1.606044769E-1
2.114308811E0,-2.941608429E-2,-3.996348381E-2,-2.523498535E-1
2.119325478E0,-1.659495831E-1,-9.134328365E-2,-2.746896744E-1
2.124342196E0,-2.965014577E-1,-2.061644197E-1,-1.848306656E-1
2.129359123E0,-4.734784961E-1,-2.850902081E-1,-1.526050568E-1
2.134376311E0,-5.580345392E-1,-3.198498487E-1,-1.026220322E-1
2.139393915E0,-5.629454255E-1,-2.684739232E-1,-4.322433472E-2
2.144411936E0,-5.203473568E-1,-2.099357247E-1,4.589462280E-2
2.149430373E0,-4.493778944E-1,-1.275969744E-1,1.109189987E-1
2.154449228E0,-3.644588590E-1,-7.152241468E-2,1.304273605E-1
2.159468498E0,-2.597721219E-1,-1.824367046E-2,8.667087555E-2
2.164488186E0,-9.237676859E-2,2.792775631E-3,4.194641113E-2
2.169508238E0,6.397080421E-2,9.733259678E-3,9.064388275E-2
2.174528498E0,1.750133336E-1,-1.003736258E-2,1.954717636E-1
2.179548967E0,2.835730314E-1,-6.056052446E-2,2.356109619E-1
2.184569592E0,3.724927306E-1,-1.242569089E-1,2.051744461E-1
2.189590217E0,4.045833945E-1,-1.832342744E-1,1.568632126E-1
2.194610842E0,4.220079780E-1,-2.228637338E-1,-1.673221588E-2
2.199631467E0,4.033673108E-1,-1.866376400E-1,-1.970357895E-1
2.204651728E0,4.075244665E-1,-1.510242224E-1,-1.308050156E-1
2.209670842E0,2.627870440E-1,-9.770965576E-2,1.192255020E-1
2.214689801E0,1.371014118E-2,-3.338921070E-2,2.002277374E-1
2.219708759E0,-2.316789627E-1,1.082539558E-3,1.758737564E-1
2.224727717E0,-4.935531914E-1,2.708435059E-2,1.108818054E-1
2.229746676E0,-6.952259541E-1,1.250886917E-2,-6.582260132E-3
2.234765634E0,-8.380748034E-1,2.116763592E-2,-1.727800369E-1
2.239784592E0,-9.732234478E-1,2.708053589E-2,-2.430324554E-1
2.244803551E0,-1.036916971E0,4.959183931E-2,-2.652893066E-1
2.249822509E0,-8.606988192E-1,9.100413322E-2,-2.121887207E-1
2.254841467E0,-2.531838119E-1,1.431596279E-1,-1.161794662E-1
2.259860426E0,1.269599497E-1,2.045680285E-1,-4.430389404E-2
2.264879384E0,2.994508743E-1,2.840499878E-1,-1.086521149E-2
2.269898342E0,3.591203392E-1,2.960951924E-1,-1.805543900E-1
2.274917301E0,3.630367815E-1,2.789329886E-1,-3.246927261E-1
2.279936259E0,3.363885880E-1,2.738412023E-1,-4.922523499E-1
2.284955217E0,2.724852860E-1,3.837164640E-1,-3.557977676E-1
2.289974176E0,3.256005645E-1,3.164744973E-1,-2.038612366E-1
2.294993134E0,4.167467058E-1,2.385396957E-1,-1.273555756E-1
2.300012092E0,4.688647985E-1,1.339726448E-1,-5.690574646E-2
2.305031051E0,4.248185158E-1,8.710265160E-3,-9.613037109E-4
2.310050009E0,2.832385302E-1,-9.296643734E-2,2.727890015E-2
2.315068967E0,6.019669771E-2,-1.247776747E-1,5.053234100E-2
2.320087926E0,-1.931366324E-1,-6.163096428E-2,2.513675690E-1
2.325106884E0,-3.733333647E-1,-2.470266819E-2,2.865810394E-1
2.330125842E0,-2.789691985E-1,-1.471936703E-2,2.224435806E-1
2.335144801E0,-3.802829981E-2,6.612539291E-4,9.639453888E-2
2.340163759E0,1.775879860E-1,7.461071014E-3,-6.026744843E-2
2.345182717E0,2.627337575E-1,1.343679428E-2,-1.482868195E-1
2.350201676E0,2.689255476E-1,1.034140587E-3,-1.917247772E-1
2.355220634E0,2.413848341E-1,-5.749344826E-3,-1.919384003E-1
2.360239592E0,2.028463483E-1,1.320385933E-2,-1.550645828E-1
2.365258551E0,1.898044050E-1,3.239226341E-2,-1.146926880E-1
2.370277509E0,1.605319977E-1,1.450002193E-2,-2.187633514E-2
2.375296467E0,1.440998912E-1,3.470563889E-2,2.770709991E-2
2.380315426E0,1.623759568E-1,5.226814747E-2,5.088806152E-2
2.385334384E0,1.379491389E-1,4.468154907E-2,-4.900455475E-2
2.390353342E0,1.378964782E-1,3.262770176E-2,-2.438545227E-1
2.395372301E0,2.124560773E-1,6.307673454E-2,-2.589197159E-1
2.400391259E0,2.899473608E-1,6.904947758E-2,-2.227287292E-1
2.405410217E0,3.027974665E-1,1.024947166E-1,-5.503368378E-2
2.410429176E0,2.740092576E-1,1.117308140E-1,1.409282684E-1
2.415448134E0,2.016679943E-1,1.106792688E-1,3.185672760E-1
2.420467092E0,1.518249214E-1,1.123136282E-1,4.222364426E-1
2.425486051E0,9.023448825E-2,9.526300430E-2,3.908386230E-1
2.430505009E0,4.663404822E-2,8.690035343E-2,3.252058029E-1
2.435523967E0,3.214725852E-2,5.056810379E-2,2.327432632E-1
2.440542926E0,4.096612334E-2,2.445220947E-2,1.907997131E-1
2.445561884E0,6.066209078E-2,-4.556894302E-3,1.431446075E-1
2.450580842E0,9.236836433E-2,-2.077662945E-2,9.816360474E-2
2.455599801E0,1.070797741E-1,-1.823294163E-2,5.588626862E-2
2.460618759E0,1.313985288E-1,-1.935398579E-2,1.158618927E-2
2.465637717E0,1.430163085E-1,-1.813077927E-2,-1.689243317E-2
2.470656676E0,1.241900623E-1,-1.103341579E-2,-4.755020142E-3
2.475675634E0,1.011382937E-1,1.368546486E-2,-3.189373016E-2
2.480694592E0,7.712048292E-2,3.094470501E-2,-4.932308197E-2
2.485713551E0,7.085689902E-2,4.562318325E-2,-3.457260132E-2
2.490732509E0,6.202760339E-2,7.435870171E-2,-1.046657562E-2
2.495751467E0,6.857395172E-2,9.323287010E-2,-7.948875427E-3
2.500770426E0,6.541073322E-2,1.394406557E-1,-2.799224854E-2
2.505789384E0,6.934618950E-2,1.640766263E-1,-9.058666229E-2
2.510808342E0,5.763530731E-2,1.723720431E-1,-1.490478516E-1
2.515827301E0,6.360608339E-2,1.694722772E-1,-2.544307709E-1
2.520846259E0,4.315933585E-2,1.581649780E-1,-3.552570343E-1
2.525865217E0,5.799794197E-2,1.552565694E-1,-3.601551056E-1
2.530884176E0,6.989657879E-2,1.322181225E-1,-3.838787079E-1
2.535903134E0,5.264049768E-2,1.153522730E-1,-3.692903519E-1
2.540922092E0,6.719771028E-2,1.057674885E-1,-2.905845642E-1
2.545941051E0,7.289114594E-2,8.771455288E-2,-1.518878937E-1
2.550960009E0,6.755220890E-2,7.387721539E-2,-5.583858490E-2
2.555978967E0,4.208919406E-2,6.520879269E-2,3.827190399E-2
2.560997926E0,2.422758937E-2,4.219126701E-2,1.292219162E-1
2.566016884E0,7.824420929E-3,1.190006733E-2,1.861476898E-1
2.571035842E0,1.554787159E-4,9.683251381E-3,2.460975647E-1
2.576054801E0,4.041397572E-2,-3.625249863E-2,3.090066910E-1
2.581073759E0,7.122826576E-2,-4.140746593E-2,3.439617157E-1
2.586092717E0,8.800652623E-2,-6.334078312E-2,3.677892685E-1
2.591111676E0,8.727011085E-2,-5.799639225E-2,3.639545441E-1
2.596130686E0,7.509285212E-2,-7.677948475E-2,3.481025696E-1
2.601149853E0,8.584147692E-2,-6.488609314E-2,3.155784607E-1
2.606169019E0,5.888196826E-2,-5.447757244E-2,2.831611633E-1
2.611188186E0,5.264151096E-2,-3.332698345E-2,2.129049301E-1
2.616207353E0,5.739364028E-2,-1.066946983E-2,1.514663696E-1
2.621226519E0,4.564702511E-2,7.690906525E-3,6.792163849E-2
2.626245686E0,4.702407122E-2,3.179657459E-2,-3.748703003E-2
2.631264853E0,4.361024499E-2,7.011318207E-2,-1.265640259E-1
2.636284019E0,5.176663399E-2,9.791731834E-2,-1.958522797E-1
2.641303186E0,7.632541656E-2,1.166791916E-1,-2.549877167E-1
2.646322353E0,1.100027859E-1,1.302278042E-1,-2.601032257E-1
2.651341519E0,1.314324737E-1,1.456345320E-1,-2.722043991E-1
2.656360686E0,1.300130337E-1,1.569274664E-1,-2.615575790E-1
2.661379853E0,1.128762662E-1,1.510226727E-1,-1.986904144E-1
2.666399019E0,1.100712121E-1,1.467442513E-1,-1.362981796E-1
2.671418186E0,1.145046353E-1,1.096537113E-1,-8.149814606E-2
2.676437353E0,9.885451198E-2,9.551692009E-2,-1.526546478E-2
2.681456519E0,7.061994076E-2,5.292344093E-2,2.192592621E-2
2.686475686E0,5.814892054E-2,3.995978832E-2,6.588363647E-2
2.691494853E0,3.644213080E-2,-6.467103958E-3,9.638023376E-2
2.696514019E0,4.109808803E-2,-2.565109730E-2,1.028261185E-1
2.701533186E0,4.687657952E-2,-4.988110065E-2,1.150960922E-1
2.706552353E0,5.598524213E-2,-5.535542965E-2,1.248273849E-1
2.711571519E0,8.276325464E-2,-2.552139759E-2,1.201848984E-1
2.716590686E0,1.055298150E-1,-3.039956093E-2,9.301376343E-2
2.721609853E0,1.030342877E-1,7.525324821E-3,4.232406616E-2
2.726629019E0,1.159744263E-1,3.797018528E-2,-8.258819580E-4
2.731648186E0,1.301137209E-1,8.145606518E-2,-6.613731384E-2
2.736667353E0,1.063512713E-1,7.370626926E-2,-9.526348114E-2
2.741686519E0,9.954759479E-2,9.352004528E-2,-1.205539703E-1
2.746705686E0,8.109453321E-2,1.073023081E-1,-1.028823853E-1
2.751724853E0,9.138667583E-2,1.115511656E-1,-9.365558624E-2
2.756744019E0,8.018431067E-2,1.039162874E-1,-5.482673645E-2
2.761763186E0,7.021212578E-2,9.762597084E-2,-5.626678467E-3
2.766782353E0,6.717523932E-2,6.644499302E-2,1.109886169E-2
2.771801519E0,4.731062055E-2,7.589554787E-2,2.530574799E-2
2.776820634E0,4.177609086E-2,7.816791534E-2,3.701877594E-2
2.781839592E0,4.007270932E-2,8.991742134E-2,2.846050262E-2
2.786858551E0,6.104138494E-2,5.992138386E-2,-3.578948975E-2
2.791877509E0,5.750384927E-2,3.459465504E-2,-1.077919006E-1
2.796896467E0,2.632093430E-2,2.573955059E-2,-1.162939072E-1
2.801915426E0,2.541413903E-2,-1.107573509E-3,-5.593204498E-2
2.806934384E0,6.778070331E-2,7.808446884E-3,1.097488403E-2
2.811953342E0,1.089404225E-1,-2.602684498E-2,3.214931488E-2
2.816972301E0,1.719039977E-1,-2.454400063E-2,-2.636814117E-2
2.821991259E0,2.001801729E-1,-1.769244671E-2,-9.978199005E-2
2.827013082E0,2.029911876E-1,-2.207779884E-2,-1.641950607E-1
2.832029748E0,1.845266968E-1,2.521038055E-3,-1.793355942E-1
2.837046415E0,1.311434209E-1,-7.222771645E-3,-1.895446777E-1
2.842063082E0,7.067209482E-2,-3.907918930E-3,-1.604766846E-1
2.847079957E0,3.176942468E-2,-1.858055592E-2,-1.292667389E-1
2.852097040E0,2.216070890E-2,-8.431196213E-3,-7.814979553E-2
2.857114540E0,2.835932374E-2,-1.901590824E-2,-2.038478851E-2
2.862132457E0,5.736419559E-2,-2.634060383E-2,4.872894287E-2
2.867150790E0,9.129002690E-2,-4.587662220E-2,9.942245483E-2
2.872169540E0,9.836724401E-2,-4.656648636E-2,1.413669586E-1
2.877188707E0,9.064903855E-2,-3.579306602E-2,1.758089066E-1
2.882208290E0,6.713876128E-2,-1.581287384E-2,1.707868576E-1
2.887228290E0,4.529869556E-2,1.082503796E-2,1.550951004E-1
2.892248498E0,2.141779661E-2,4.417693615E-2,1.525754929E-1
2.897268915E0,2.012810111E-2,7.231914997E-2,1.037511826E-1
2.902289540E0,-5.301028490E-3,8.233702183E-2,8.854866028E-2
2.907310165E0,1.295825839E-2,1.325150728E-1,5.326271057E-2
2.912330790E0,3.443381190E-2,1.763552427E-1,2.539062500E-2
2.917351415E0,4.270431399E-2,1.689020395E-1,-1.054382324E-2
2.922372040E0,2.706757188E-2,1.984977722E-1,-6.515121460E-2
2.927391207E0,-1.573860645E-3,1.949702501E-1,-7.415008545E-2
2.932410373E0,7.883310318E-3,1.835471392E-1,-8.065509796E-2
2.937429332E0,2.524250746E-2,1.760022640E-1,-9.777259827E-2
2.942448290E0,2.804464102E-2,1.438941956E-1,-8.741188049E-2
2.947467248E0,3.312304616E-2,1.052279472E-1,-8.303737640E-2
2.952486207E0,2.387961745E-2,7.644438744E-2,-8.462810516E-2
2.957505165E0,1.121491194E-2,4.080080986E-2,-5.652332306E-2
2.962524123E0,1.269724965E-2,2.952933311E-3,-3.342437744E-2
2.967543082E0,4.678338766E-3,-3.470766544E-2,-2.952671051E-2
2.972562040E0,2.287700772E-2,-7.103455067E-2,-1.855754852E-2
2.977580998E0,6.127679348E-2,-9.296250343E-2,-8.882522583E-3
2.982599957E0,1.789096594E-1,-1.532924175E-1,1.395730972E-1
2.987618915E0,1.989367604E-1,-1.804200411E-1,3.424358368E-1
2.992637873E0,1.331946850E-1,-1.885241270E-1,5.125007629E-1
2.997656832E0,-7.885605097E-3,-1.215720177E-1,4.636430740E-1
3.002675790E0,-1.443054378E-1,-7.958841324E-2,2.227153778E-1
3.007694748E0,-1.192541718E-1,-5.246198177E-2,-8.620452881E-2
3.012713707E0,-1.595818996E-2,4.832744598E-3,-3.021326065E-1
3.017732665E0,4.318073392E-2,7.564270496E-2,-4.400424957E-1
3.022751623E0,5.355077982E-2,1.014808416E-1,-4.602603912E-1
3.027770582E0,6.179735065E-2,1.164665222E-1,-4.315185547E-1
3.032789540E0,3.644317389E-2,1.299359798E-1,-3.459234238E-1
3.037808498E0,9.505996108E-2,1.569691896E-1,-3.013038635E-1
3.042827457E0,9.491002560E-2,1.702126265E-1,-2.082633972E-1
3.047846415E0,5.052852631E-2,1.494001150E-1,-8.979129791E-2
3.052865373E0,2.236261964E-2,1.317224503E-1,-6.129646301E-2
3.057884332E0,4.950115085E-2,8.601701260E-2,4.888820648E-2
3.062903290E0,8.107480407E-2,7.713019848E-2,1.557350159E-1
3.067922248E0,1.126765609E-1,5.001735687E-2,1.916007996E-1
3.072941207E0,1.238468289E-1,2.377438545E-2,2.069215775E-1
3.077960165E0,1.220436990E-1,-1.009631157E-2,1.614875793E-1
3.082979123E0,1.193081141E-1,1.980662346E-3,1.436653137E-1
3.087998082E0,7.615518570E-2,2.525186539E-2,1.140470505E-1
3.093017040E0,9.753268957E-2,3.144299984E-2,9.176826477E-2
3.098035998E0,1.562244594E-1,5.165243149E-2,9.579277039E-2
3.103054957E0,1.538563222E-1,7.391154766E-2,2.382659912E-2
3.108073915E0,9.904626012E-2,6.982684135E-2,-4.039001465E-2
3.113092873E0,5.547255278E-2,6.913244724E-2,-7.441520691E-2
3.118111832E0,6.975579262E-2,5.994021893E-2,-9.870529175E-2
3.123130790E0,7.579803467E-2,3.640770912E-2,-1.086034775E-1
3.128149748E0,6.285628676E-2,2.756285667E-2,-1.077423096E-1
3.133168707E0,1.018121839E-1,3.098058701E-2,-8.193397522E-2
3.138187665E0,1.144353151E-1,3.718650341E-2,-3.966140747E-2
3.143206623E0,8.180207014E-2,1.368904114E-2,6.280326843E-2
3.148225582E0,7.223066688E-2,-2.443182468E-2,1.489181519E-1
3.153244540E0,8.703666925E-2,-3.711485863E-2,2.104682922E-1
3.158263498E0,1.371536553E-1,-4.625058174E-2,2.725648880E-1
3.163282457E0,1.188399196E-1,-2.445852757E-2,2.782297134E-1
3.168301415E0,6.088691950E-2,-3.231763840E-4,2.647447586E-1
3.173320373E0,-2.156418562E-2,1.003074646E-2,1.420965195E-1
3.178339332E0,-1.975031197E-1,-6.140303612E-2,-1.868915558E-2
3.183358290E0,-2.366277874E-1,-1.217695475E-1,-2.053165436E-1
3.188377248E0,-8.913686872E-2,-9.678375721E-2,-3.628759384E-1
3.193399384E0,8.334118128E-2,-1.179301739E-2,-4.595556259E-1
3.198418551E0,1.106074899E-1,2.440285683E-2,-4.602890015E-1
3.203437509E0,7.247990370E-2,8.295762539E-2,-3.920421600E-1
3.208456467E0,2.465462685E-2,1.170299053E-1,-2.839059830E-1
3.213475426E0,2.455037832E-2,1.311558485E-1,-1.564292908E-1
3.218494384E0,4.000607133E-2,1.119987965E-1,-4.187107086E-2
3.223513342E0,5.651056767E-2,1.048585176E-1,6.817245483E-2
3.228532301E0,5.508831143E-2,8.808219433E-2,1.452236176E-1
3.233551259E0,5.393996835E-2,8.411872387E-2,1.883563995E-1
3.238570217E0,4.599526525E-2,7.604360580E-2,2.037658691E-1
3.243589176E0,4.806169868E-2,6.839299202E-2,2.189607620E-1
3.248608134E0,3.750222921E-2,4.440391064E-2,2.161159515E-1
3.253627092E0,2.979016304E-2,4.338729382E-2,1.775722504E-1
3.258646051E0,4.982325435E-2,5.347323418E-2,1.428270340E-1
3.263665009E0,2.937895060E-2,4.751145840E-2,5.132389069E-2
3.268683967E0,2.566167712E-2,3.320181370E-2,-1.093769073E-2
3.273702926E0,3.482326865E-2,-1.394248009E-2,-6.552886963E-2
3.278721884E0,2.377441525E-2,-6.493592262E-2,-1.599626541E-1
3.283740842E0,1.032683253E-2,-7.573378086E-2,-2.060556412E-1
3.288759801E0,9.748727083E-3,-9.759044647E-2,-2.160701752E-1
3.293778759E0,5.364984274E-3,-1.031230688E-1,-2.235460281E-1
3.298797717E0,-5.990380049E-2,-1.422014236E-1,-1.940641403E-1
3.303816676E0,-2.648645639E-2,-1.599935293E-1,-2.312221527E-1
3.308835634E0,3.854069114E-2,-1.068354845E-1,-2.513561249E-1
3.313854592E0,7.427388430E-2,-3.185677528E-2,-2.640924454E-1
3.318873551E0,1.368605196E-1,5.999732018E-2,-2.398109436E-1
3.323892509E0,1.964656860E-1,1.609938145E-1,-1.135835648E-1
3.328911467E0,1.179218292E-1,2.242290974E-1,7.331180573E-2
3.333930426E0,8.356511593E-3,2.325730324E-1,2.917833328E-1
3.338949384E0,-2.622416615E-2,1.964832544E-1,4.809360504E-1
3.343968342E0,-8.952319622E-3,1.535979509E-1,5.803775787E-1
3.348987301E0,6.219244003E-2,6.231486797E-2,5.754117966E-1
3.354006259E0,1.024429053E-1,2.075874805E-2,5.013837814E-1
3.359025217E0,1.129125059E-1,-1.592504978E-2,3.470754623E-1
3.364044176E0,1.234417707E-1,-8.069992065E-3,1.986970901E-1
3.369063134E0,1.114085615E-1,1.363229752E-2,4.202079773E-2
3.374082092E0,5.292996764E-2,4.256129265E-2,-1.180658340E-1
3.379101051E0,8.677273989E-3,3.740346432E-2,-1.853504181E-1
3.384120009E0,1.239567995E-3,3.540658951E-2,-2.045030594E-1
3.389138967E0,3.059333563E-2,2.464473248E-2,-1.759214401E-1
3.394157926E0,7.638840377E-2,3.461992741E-2,-1.415805817E-1
3.399176884E0,1.254392415E-1,3.431379795E-2,-1.430768967E-1
3.404195842E0,1.054854393E-1,2.743518353E-2,-1.694145203E-1
3.409214801E0,6.798663735E-2,1.040112972E-2,-1.907234192E-1
3.414233759E0,6.914252043E-2,-1.300930977E-2,-2.212648392E-1
3.419252717E0,1.180588305E-1,1.284515858E-2,-2.206296921E-1
3.424271676E0,1.297137141E-1,4.250109196E-2,-2.994823456E-1
3.429290634E0,7.933238149E-2,7.729864120E-2,-1.769819260E-1
3.434309592E0,-1.014143229E-3,1.164795160E-1,1.335525513E-2
3.439328551E0,-1.651361585E-2,1.372148991E-1,1.735801697E-1
3.444347509E0,-1.221206784E-2,1.185842752E-1,5.364913940E-1
3.449366467E0,-6.900417805E-2,3.662371635E-2,6.753425598E-1
3.454385426E0,-8.611473441E-2,-5.222439766E-2,5.516691208E-1
3.459404384E0,-9.815511107E-2,-1.342958212E-1,3.208742142E-1
3.464423342E0,-1.593658924E-1,-2.184721231E-1,5.873203278E-2
3.469442301E0,-2.162218392E-1,-2.663679123E-1,-1.964340210E-1
3.474461259E0,-3.436918557E-1,-3.039506674E-1,-4.090194702E-1
3.479480217E0,-4.293819964E-1,-3.333278894E-1,-4.357204437E-1
3.484499176E0,-2.613431215E-1,-2.442581654E-1,-2.722063065E-1
3.489518134E0,4.712828994E-2,-6.991207600E-2,1.578998566E-2
3.494537092E0,3.196026683E-1,1.064726114E-1,2.597846985E-1
3.499556051E0,4.717063904E-1,2.629609108E-1,3.781957626E-1
3.504575009E0,5.010768771E-1,3.140074611E-1,4.088468552E-1
3.509593967E0,4.406338334E-1,3.112789989E-1,4.367265701E-1
3.514612926E0,3.741418123E-1,2.340142131E-1,3.277301788E-1
3.519631884E0,2.519192100E-1,1.414507627E-1,1.293563843E-1
3.524650842E0,1.863206476E-1,2.857923508E-2,-5.189704895E-2
3.529669801E0,1.262353659E-1,-5.312490463E-2,-1.413431168E-1
3.534688759E0,1.040361226E-1,-9.101617336E-2,-1.290693283E-1
3.539707717E0,9.818369150E-2,-1.392469406E-1,-8.481979370E-2
3.544730894E0,1.047902405E-1,-1.743496656E-1,1.596660614E-1
3.549750269E0,-9.948015213E-5,-2.411819696E-1,6.002445221E-1
3.554769228E0,-2.031243443E-1,-2.727922201E-1,1.121191978E0
3.559788186E0,-3.591869175E-1,-3.268969059E-1,1.317005157E0
3.564807144E0,-3.396848440E-1,-3.146603107E-1,9.851360321E-1
3.569826103E0,-1.423202455E-1,-2.483516932E-1,4.672842026E-1
3.574845061E0,6.389585137E-2,-9.268414974E-2,-6.629180908E-2
3.579864019E0,1.335250735E-1,7.964754105E-2,-4.492321014E-1
3.584882978E0,1.583959162E-1,1.908914447E-1,-8.050165176E-1
3.589901936E0,1.734972298E-1,2.773988247E-1,-9.094772339E-1
3.594920894E0,2.331920564E-1,3.249126673E-1,-8.003644943E-1
3.599939853E0,2.844288945E-1,3.370773196E-1,-7.240447998E-1
3.604958811E0,2.407065481E-1,3.746994734E-1,-7.574138641E-1
3.609977769E0,1.620551348E-1,3.652450442E-1,-6.704359055E-1
3.614996728E0,8.544450998E-2,3.515642881E-1,-5.412769318E-1
3.620015686E0,2.906262875E-2,3.300585151E-1,-3.916530609E-1
3.625034644E0,-1.472538710E-2,3.009528518E-1,-3.202600479E-1
3.630053603E0,-4.576849937E-2,2.598457932E-1,-2.623357773E-1
3.635072561E0,-8.431392908E-2,1.949493885E-1,-3.735733032E-2
3.640091519E0,-7.774412632E-2,1.404113770E-1,2.404403687E-1
3.645110478E0,-6.447315216E-2,7.446950674E-2,3.450384140E-1
3.650129436E0,-8.546596766E-2,6.169080734E-4,4.559593201E-1
3.655148394E0,-1.062881202E-1,-8.778941631E-2,6.051540375E-1
3.660167353E0,-1.424164325E-1,-1.484422684E-1,9.798402786E-1
3.665186311E0,-3.211209774E-1,-2.278132439E-1,1.480691910E0
3.670205269E0,-5.145964026E-1,-2.910785675E-1,1.926094055E0
3.675224228E0,-5.907226801E-1,-3.623673916E-1,2.222694397E0
3.680243186E0,-4.694081247E-1,-3.992632627E-1,2.455949783E0
3.685262144E0,-2.301509678E-1,-3.582489491E-1,2.266661644E0
3.690281103E0,-1.357704401E-3,-2.864880562E-1,1.830608368E0
3.695300061E0,2.711054981E-1,-2.316888571E-1,1.396921158E0
3.700319019E0,5.845469236E-1,-1.848895550E-1,1.162699699E0
3.705337978E0,8.905682564E-1,-1.282662153E-1,1.132205963E0
3.710356936E0,1.096507430E0,-6.731784344E-2,1.234815598E0
3.715375894E0,1.185391545E0,-2.866661549E-2,1.283011436E0
3.720394853E0,1.219110966E0,-4.244565964E-3,1.251096725E0
3.725413811E0,1.268623710E0,-4.243850708E-3,1.204005241E0
3.730432769E0,1.228199363E0,1.527309418E-3,1.214256287E0
3.735451728E0,1.175832748E0,-9.707570076E-3,1.346325874E0
3.740470686E0,1.012911320E0,1.200914383E-3,1.476876259E0
3.745489644E0,8.408844471E-1,3.885322809E-2,1.495921135E0
3.750508603E0,6.787792444E-1,5.776774883E-2,1.422746658E0
3.755527561E0,5.298346281E-1,4.626572132E-2,1.322068214E0
3.760546519E0,3.631538749E-1,5.917131901E-3,1.209495544E0
3.765565478E0,1.016383618E-1,-1.871514320E-2,1.278744698E0
3.770584436E0,-1.966011971E-1,1.131486893E-2,1.453030586E0
3.775603394E0,-5.225683451E-1,3.604501486E-2,1.622241020E0
3.780622353E0,-8.316873312E-1,4.119992256E-2,1.605883598E0
3.785641311E0,-1.038793206E0,2.482897043E-2,1.533377647E0
3.790660269E0,-1.160419583E0,1.827800274E-2,1.440700531E0
3.795679228E0,-1.088056087E0,3.599405289E-2,1.253801346E0
3.800698186E0,-8.908572793E-1,5.907887220E-2,1.030234337E0
3.805717144E0,-6.732320189E-1,1.191878319E-1,8.298807144E-1
3.810736103E0,-4.695381224E-1,1.700904071E-1,6.359939575E-1
3.815755061E0,-3.180343807E-1,2.566905022E-1,4.820518494E-1
3.820774019E0,-2.520221174E-1,4.071880579E-1,3.607978821E-1
3.825792978E0,-1.941775084E-1,5.624606609E-1,2.518224716E-1
3.830811936E0,-1.001350880E-1,6.800103188E-1,1.646289825E-1
3.835830894E0,-1.194193959E-2,7.586787939E-1,1.541385651E-1
3.840849853E0,1.006293595E-1,7.991753221E-1,1.580533981E-1
3.845868811E0,1.921441406E-1,8.576892018E-1,2.600145340E-1
3.850887769E0,2.617075443E-1,8.910825253E-1,3.965244293E-1
3.855906728E0,3.117122650E-1,9.074633121E-1,5.651741028E-1
3.860925686E0,3.378411829E-1,9.028917551E-1,6.272792816E-1
3.865944644E0,4.021265209E-1,8.604772091E-1,6.021766663E-1
3.870963603E0,4.959216714E-1,8.311458826E-1,5.617475510E-1
3.875982561E0,5.745052695E-1,8.145825863E-1,5.586194992E-1
3.881001519E0,6.824482679E-1,7.385870218E-1,5.711727142E-1
3.886020478E0,7.472450733E-1,5.791021585E-1,5.921821594E-1
3.891039436E0,7.595201731E-1,3.944193423E-1,6.228189468E-1
3.896058394E0,7.734767199E-1,2.368487120E-1,6.008920670E-1
3.901077353E0,6.997492313E-1,9.568059444E-2,6.065874100E-1
3.906098655E0,5.734367967E-1,-1.371258497E-2,6.530218124E-1
3.911119905E0,3.786748052E-1,-5.453729630E-2,7.281684875E-1
3.916138863E0,1.482591927E-1,-4.514306784E-2,7.434844971E-1
3.921157821E0,-8.384069800E-2,-3.240597248E-2,7.085809708E-1
3.926176780E0,-2.845816016E-1,-3.795576096E-2,6.366558075E-1
3.931195738E0,-4.040183425E-1,-2.701765299E-2,5.026454926E-1
3.936214696E0,-4.758477211E-1,-4.730391502E-2,3.257627487E-1
3.941233655E0,-5.050985813E-1,-5.767756701E-2,1.646604538E-1
3.946252613E0,-4.516863823E-1,-6.021374464E-2,4.562854767E-2
3.951271571E0,-3.335997462E-1,-2.714717388E-2,-8.516883850E-2
3.956290530E0,-1.619809270E-1,-4.795324802E-2,-1.858654022E-1
3.961309488E0,-1.647514105E-2,-8.274757862E-2,-2.672538757E-1
3.966328446E0,7.086789608E-2,-1.075115800E-1,-2.910823822E-1
3.971347405E0,4.260113835E-2,-1.104855537E-1,-2.597856522E-1
3.976366363E0,-9.122827649E-2,-6.664478779E-2,-2.726163864E-1
3.981385321E0,-2.374297678E-1,1.904726028E-2,-2.553625107E-1
3.986404280E0,-3.793241680E-1,1.464887857E-1,-2.534933090E-1
3.991423238E0,-4.929452240E-1,2.173268795E-1,-2.383422852E-1
3.996442196E0,-5.084980726E-1,2.325393558E-1,-2.350692749E-1
4.001461155E0,-4.738845527E-1,2.038343549E-1,-2.161836624E-1
4.006480113E0,-4.453386664E-1,1.392369866E-1,-1.661901474E-1
4.011499071E0,-4.658027887E-1,9.244799614E-2,-1.401348114E-1
4.016518030E0,-4.781480432E-1,9.098798037E-2,-1.057128906E-1
4.021536988E0,-4.384590685E-1,4.373627901E-2,-7.492160797E-2
4.026555946E0,-3.688348532E-1,-1.216113567E-2,-3.461933136E-2
4.031574905E0,-3.247206211E-1,-1.160126925E-1,-2.547168732E-2
4.036593863E0,-2.926647365E-1,-1.911578178E-1,9.604835510E-2
4.041612821E0,-2.651756108E-1,-2.057174444E-1,2.484722137E-1
4.046631780E0,-3.128073215E-1,-1.904017925E-1,3.133239746E-1
4.051650738E0,-5.160104036E-1,-1.699914932E-1,4.844875336E-1
4.056669696E0,-6.941090822E-1,-2.187248468E-1,6.326866150E-1
4.061688655E0,-8.041933775E-1,-2.731542587E-1,6.168241501E-1
4.066707613E0,-8.070521355E-1,-3.497886658E-1,5.865316391E-1
4.071726571E0,-7.006019354E-1,-4.042501450E-1,5.239028931E-1
4.076745530E0,-5.501694679E-1,-4.233162403E-1,5.401945114E-1
4.081764488E0,-3.530218899E-1,-3.698587418E-1,4.679136276E-1
4.086783446E0,-2.531175017E-1,-3.326514959E-1,4.496173859E-1
4.091802405E0,-8.161562681E-2,-2.969775200E-1,4.829235077E-1
4.096821363E0,1.348843426E-1,-2.736622095E-1,5.056133270E-1
4.101840321E0,2.520971596E-1,-2.051887512E-1,4.973993301E-1
4.106859280E0,1.751393080E-1,-7.195913792E-2,6.305379868E-1
4.111878238E0,1.157145202E-2,1.245747805E-1,8.533916473E-1
4.116897196E0,-1.352030784E-1,3.316000700E-1,8.118953705E-1
4.121916155E0,-3.149164021E-1,4.415112138E-1,9.619541168E-1
4.126935113E0,-2.541456819E-1,4.655914903E-1,9.409551620E-1
4.131954071E0,3.425553441E-3,4.335194826E-1,7.777614594E-1
4.136973030E0,3.916444778E-1,3.191020489E-1,6.375188828E-1
4.141991988E0,7.692500949E-1,2.107534409E-1,6.134138107E-1
4.147010946E0,1.057475328E0,1.983505487E-1,6.908521652E-1
4.152029905E0,1.280359030E0,1.864284277E-1,7.249355316E-1
4.157048863E0,1.425080538E0,1.488919258E-1,6.653785706E-1
4.162067821E0,1.422445774E0,9.721016884E-2,6.018962860E-1
4.167086780E0,1.318310857E0,5.499780178E-2,5.463905334E-1
4.172105738E0,1.130737782E0,-3.170514107E-2,4.725074768E-1
4.177124696E0,8.300058842E-1,-7.566976547E-2,3.491649628E-1
4.182143655E0,4.104775488E-1,-8.048975468E-2,1.764240265E-1
4.187162613E0,6.882324815E-3,-6.259274483E-2,-4.798984528E-2
4.192181571E0,-3.523637652E-1,-6.666493416E-2,-2.844657898E-1
4.197200530E0,-5.534895658E-1,-6.209588051E-2,-6.130037308E-1
4.202219488E0,-6.066823602E-1,-3.378200531E-2,-9.389276505E-1
4.207238446E0,-5.683065653E-1,2.106904984E-3,-1.234656334E0
4.212257405E0,-4.650171995E-1,5.081486702E-2,-1.531248093E0
4.217276363E0,-3.280997872E-1,7.064270973E-2,-1.753361702E0
4.222295321E0,-1.852990091E-1,7.593750954E-2,-1.935770988E0
4.227314280E0,-5.706757307E-2,3.313946724E-2,-2.067780972E0
4.232333238E0,2.999156713E-2,-6.022596359E-2,-2.166220188E0
4.237352196E0,9.230554104E-3,-1.764502525E-1,-2.197626114E0
4.242371155E0,-4.268442094E-2,-2.582230568E-1,-2.126228333E0
4.247390113E0,-1.155431420E-1,-2.948412895E-1,-2.017901421E0
4.252409071E0,-1.944287270E-1,-2.685242891E-1,-1.912143707E0
4.257428030E0,-2.570216656E-1,-2.391378880E-1,-1.921322823E0
4.262446988E0,-2.886158228E-1,-1.852321625E-1,-2.017794609E0
4.267465946E0,-3.065207601E-1,-1.522643566E-1,-2.081898212E0
4.272488811E0,-2.525213361E-1,-1.125686169E-1,-2.145941734E0
4.277508707E0,-1.637738198E-1,-8.866655827E-2,-2.225441933E0
4.282527717E0,-6.537972391E-2,-8.033156395E-2,-2.193618774E0
4.287546676E0,2.735444903E-2,-6.707000732E-2,-2.125912666E0
4.292565634E0,1.446887851E-1,-6.313121319E-2,-2.108434677E0
4.297584592E0,2.531020045E-1,-4.936909676E-2,-2.086122513E0
4.302603551E0,3.515989184E-1,-6.806838512E-2,-2.098484993E0
4.307622509E0,3.876178563E-1,-1.097681522E-1,-2.112013817E0
4.312641467E0,3.562830687E-1,-1.348881721E-1,-2.124309540E0
4.317660426E0,2.703940868E-1,-1.252373457E-1,-2.099481583E0
4.322679384E0,2.076735646E-1,-7.113718987E-2,-2.067449570E0
4.327698342E0,1.467693448E-1,-1.914823055E-2,-2.056902409E0
4.332717301E0,2.180057913E-1,-2.405083179E-2,-2.120396614E0
4.337736259E0,3.144190609E-1,-2.697265148E-2,-2.193266869E0
4.342755217E0,3.779226542E-1,9.286820889E-3,-2.193008900E0
4.347774176E0,4.095461369E-1,1.182520390E-2,-2.162757397E0
4.352793134E0,4.227985144E-1,-4.910856485E-2,-2.115688324E0
4.357812092E0,4.814882874E-1,-1.483395696E-1,-2.030300140E0
4.362831051E0,5.902495384E-1,-2.431380153E-1,-1.942546844E0
4.367850009E0,7.269243598E-1,-3.264716268E-1,-1.900285721E0
4.372868967E0,8.779922724E-1,-3.543555140E-1,-1.895123482E0
4.377887926E0,9.519014955E-1,-3.904305696E-1,-1.855284691E0
4.382906884E0,8.966791034E-1,-3.942058086E-1,-1.783206940E0
4.387925842E0,7.293508649E-1,-3.001966476E-1,-1.733945847E0
4.392944801E0,4.230747819E-1,-2.197716236E-1,-1.727790833E0
4.397963759E0,9.756174684E-2,-2.099447846E-1,-1.771795273E0
4.402982717E0,-6.888198853E-2,-1.771220565E-1,-1.845543861E0
4.408001676E0,-1.432025433E-1,-1.319920421E-1,-1.929884911E0
4.413020634E0,-1.062149405E-1,-8.665120602E-2,-2.049949646E0
4.418039592E0,-5.248486996E-4,-6.728386879E-2,-2.132772446E0
4.423058551E0,8.756496012E-2,-8.726936579E-2,-2.168860435E0
4.428077509E0,1.411727965E-1,-7.360064983E-2,-2.178603649E0
4.433096467E0,1.614510119E-1,-2.865803242E-2,-2.231379509E0
4.438115426E0,2.151618600E-1,1.539790630E-2,-2.345063686E0
4.443134384E0,2.927344441E-1,5.966186523E-3,-2.435890675E0
4.448153342E0,3.715399802E-1,-3.914999962E-2,-2.485966682E0
4.453172301E0,4.375197589E-1,-1.011157036E-1,-2.454712391E0
4.458191259E0,4.597325623E-1,-2.042263150E-1,-2.415188313E0
4.463210217E0,3.977931440E-1,-3.451955914E-1,-2.422423840E0
4.468229176E0,3.058416843E-1,-4.859256148E-1,-2.448868275E0
4.473248134E0,1.668067873E-1,-5.642850995E-1,-2.466972351E0
4.478267092E0,-1.870191097E-2,-5.458503366E-1,-2.509019852E0
4.483286051E0,-2.660983205E-1,-4.771509767E-1,-2.580935955E0
4.488305009E0,-4.915748835E-1,-4.129363298E-1,-2.661133766E0
4.493323967E0,-6.525014043E-1,-3.600021601E-1,-2.745994568E0
4.498342926E0,-7.241151333E-1,-3.027660847E-1,-2.855843067E0
4.503361884E0,-7.020993233E-1,-2.849206924E-1,-2.921272755E0
4.508380842E0,-6.442825198E-1,-3.169601560E-1,-2.922010422E0
4.513399801E0,-6.049917936E-1,-3.375561237E-1,-2.840202808E0
4.518418759E0,-5.997922421E-1,-3.192027807E-1,-2.702258110E0
4.523437717E0,-6.393511295E-1,-2.630069852E-1,-2.560847759E0
4.528456676E0,-7.027738094E-1,-1.925479770E-1,-2.351373672E0
4.533475634E0,-7.156040072E-1,-1.079441309E-1,-2.173155785E0
4.538494592E0,-6.472630501E-1,-4.754465818E-2,-2.052481174E0
4.543513551E0,-4.877066612E-1,-2.485197783E-2,-1.960633278E0
4.548532509E0,-2.148357928E-1,-5.640071630E-2,-1.958563805E0
4.553551467E0,1.522503942E-1,-8.959668875E-2,-1.986380577E0
4.558570426E0,2.415903807E-1,-9.017086029E-2,-1.790604591E0
4.563589384E0,2.686681151E-1,-1.148051620E-1,-1.579580307E0
4.568608342E0,2.851715386E-1,-1.159354448E-1,-1.460938454E0
4.573627301E0,2.349585444E-1,-6.515872478E-2,-1.297079086E0
4.578646259E0,1.742876768E-1,-3.123480082E-2,-1.083306313E0
4.583665217E0,1.442147493E-1,-6.719940901E-2,-9.201183319E-1
4.588684176E0,1.378236711E-1,-1.876462698E-1,-7.859325409E-1
4.593703134E0,1.578751355E-1,-3.042739630E-1,-6.830930710E-1
4.598722092E0,2.044557333E-1,-4.268546104E-1,-6.390571594E-1
4.603741051E0,3.499756157E-1,-5.040311217E-1,-7.063226700E-1
4.608760009E0,4.793794751E-1,-5.906621218E-1,-9.145832062E-1
4.613778967E0,4.977156222E-1,-6.972308159E-1,-1.145245552E0
4.618797926E0,4.746074677E-1,-6.982012391E-1,-1.339680672E0
4.623816884E0,3.822622895E-1,-6.590009928E-1,-1.566057205E0
4.628839644E0,2.143703699E-1,-5.121015310E-1,-1.795616150E0
4.633859436E0,-1.046124101E-2,-2.942431867E-1,-2.022366524E0
4.638878394E0,-2.927978933E-1,-1.200443804E-1,-2.223604679E0
4.643897353E0,-6.225811839E-1,-4.179114103E-2,-2.389813900E0
4.648916311E0,-9.751487970E-1,-9.154629707E-2,-2.434968948E0
4.653935269E0,-1.197906613E0,-1.541536748E-1,-2.484778404E0
4.658954228E0,-1.361879587E0,-2.701100111E-1,-2.426867485E0
4.663973186E0,-1.526988626E0,-3.088419437E-1,-2.250615120E0
4.668992144E0,-1.624093890E0,-3.338616192E-1,-2.047056198E0
4.674011103E0,-1.585180044E0,-3.489698768E-1,-1.846122742E0
4.679030061E0,-1.370766521E0,-3.744055033E-1,-1.694438934E0
4.684049019E0,-1.009278178E0,-4.687101543E-1,-1.514264107E0
4.689067978E0,-6.071436405E-1,-6.009394526E-1,-1.418069839E0
4.694086936E0,-2.377026081E-1,-6.179869175E-1,-1.301753044E0
4.699105894E0,9.016421437E-2,-5.070607662E-1,-1.124651909E0
4.704124853E0,3.096791506E-1,-2.683469057E-1,-9.884557724E-1
4.709143811E0,3.701162636E-1,7.552924007E-2,-9.206275940E-1
4.714162769E0,2.847982049E-1,5.118585825E-1,-8.373851776E-1
4.719181728E0,1.307947338E-1,8.581404090E-1,-7.889003754E-1
4.724200686E0,2.431064844E-3,1.000085473E0,-8.969707489E-1
4.729219644E0,6.038239598E-2,9.579526782E-1,-1.011897087E0
4.734238603E0,3.231801689E-1,7.327436209E-1,-1.121706009E0
4.739257561E0,6.698750854E-1,3.562948108E-1,-1.146346092E0
4.744276519E0,8.790037036E-1,1.895332336E-2,-9.245824814E-1
4.749295478E0,9.124457836E-1,-1.735179424E-1,-5.308837891E-1
4.754314436E0,8.619653583E-1,-1.892059445E-1,-1.089134216E-1
4.759333394E0,7.953838110E-1,-1.367564797E-1,2.827205658E-1
4.764352353E0,7.143929005E-1,-1.254591644E-1,5.603179932E-1
4.769371311E0,6.065791249E-1,-1.630151123E-1,8.088645935E-1
4.774390269E0,5.433221459E-1,-1.659741253E-1,8.693742752E-1
4.779409228E0,4.890400469E-1,-1.196331233E-1,7.349071503E-1
4.784428186E0,4.835672975E-1,2.085784078E-2,6.256904602E-1
4.789447144E0,4.334282279E-1,1.909807026E-1,4.687004089E-1
4.794466103E0,3.259706795E-1,3.505886197E-1,1.945457458E-1
4.799485061E0,1.655591726E-1,4.739969671E-1,1.131534576E-2
4.804504019E0,-6.906747818E-2,4.562724531E-1,1.574134827E-2
4.809522978E0,-2.614522576E-1,3.879346251E-1,1.299638748E-1
4.814541936E0,-3.690756857E-1,2.480732352E-1,2.140693665E-1
4.819560894E0,-4.045964777E-1,1.224820465E-1,3.172035217E-1
4.824579853E0,-3.650812805E-1,2.019315958E-2,4.549264908E-1
4.829598811E0,-2.673589587E-1,-1.009840220E-1,4.849205017E-1
4.834617769E0,-1.815915108E-1,-2.219573259E-1,5.484218597E-1
4.839636728E0,-2.049066126E-1,-2.917274535E-1,7.506418228E-1
4.844655686E0,-3.328638077E-1,-2.222997546E-1,1.022091866E0
4.849674644E0,-5.004273653E-1,-5.311926454E-2,1.134334564E0
4.854693603E0,-6.586011052E-1,1.910197884E-1,1.056473732E0
4.859712561E0,-7.294617891E-1,4.567061067E-1,9.082660675E-1
4.864731519E0,-6.753970385E-1,6.532878280E-1,7.363605499E-1
4.869750478E0,-5.135656595E-1,7.857635021E-1,6.303987503E-1
4.874769436E0,-3.403751850E-1,8.361661434E-1,5.950527191E-1
4.879788394E0,-1.724026203E-1,8.190553188E-1,5.250291824E-1
4.884807353E0,-3.117084503E-3,7.012504935E-1,5.220174789E-1
4.889826311E0,1.424339414E-1,5.260658264E-1,6.684350967E-1
4.894845269E0,1.739611626E-1,3.747015297E-1,9.150524139E-1
4.899864228E0,1.427150071E-1,3.401621878E-1,1.144566536E0
4.904883186E0,7.629743218E-2,3.560415506E-1,1.388090134E0
4.909902144E0,1.373005509E-1,3.741559386E-1,1.542783737E0
4.914921103E0,2.897873521E-1,3.992010951E-1,1.645827293E0
4.919940061E0,4.666742086E-1,4.680057168E-1,1.773856163E0
4.924959019E0,5.056010485E-1,5.383400917E-1,1.925701141E0
4.929977978E0,3.279735744E-1,5.303421617E-1,2.235285759E0
4.934996936E0,2.199685872E-1,5.740446448E-1,2.267211914E0
4.940015894E0,2.230912745E-1,6.396160126E-1,2.185605049E0
4.945034853E0,2.522323132E-1,6.622822881E-1,2.042011261E0
4.950053811E0,3.361954987E-1,6.870352030E-1,1.635654449E0
4.955072769E0,3.682117164E-1,6.416723728E-1,1.264562607E0
4.960091728E0,3.762519956E-1,5.353825092E-1,1.003992081E0
4.965110686E0,3.968060911E-1,3.874440789E-1,7.605228424E-1
4.970129644E0,4.260898232E-1,2.441093475E-1,5.520648956E-1
4.975148603E0,4.307232797E-1,1.658661962E-1,4.467420578E-1
4.980167561E0,4.391019940E-1,1.969534010E-1,4.360437393E-1
4.985190946E0,4.444893599E-1,2.749140561E-1,4.205846786E-1
4.990210217E0,3.698264062E-1,3.742772937E-1,3.297977448E-1
4.995229176E0,2.967874110E-1,4.639840126E-1,3.012895584E-1
5.000248134E0,2.463140488E-1,5.068580508E-1,4.127302170E-1
5.005267092E0,2.299650908E-1,5.291830301E-1,6.042070389E-1
5.010286051E0,1.734116375E-1,5.210397243E-1,8.039417267E-1
5.015305009E0,1.276074052E-1,4.963970780E-1,8.601179123E-1
5.020323967E0,9.202584624E-2,4.767165184E-1,8.255052567E-1
5.025342926E0,3.096473217E-2,4.415050745E-1,7.695026398E-1
5.030361884E0,-1.920646429E-2,3.703098297E-1,6.335153580E-1
5.035380842E0,4.922235012E-2,2.082631290E-1,3.972492218E-1
5.040399801E0,1.851917505E-1,5.295601487E-2,1.887292862E-1
5.045418759E0,2.750029564E-1,-7.281944156E-2,1.179151535E-1
5.050437717E0,3.030990660E-1,-1.356043816E-1,1.775293350E-1
5.055456676E0,2.849302888E-1,-1.264503002E-1,2.742033005E-1
5.060475634E0,2.143451273E-1,-1.280713379E-1,3.481731415E-1
5.065494592E0,1.467904449E-1,-1.418257654E-1,4.030818939E-1
5.070513551E0,1.022118926E-1,-1.736112535E-1,3.935022354E-1
5.075532509E0,1.747828722E-2,-2.039288282E-1,4.402189255E-1
5.080551467E0,-4.131948948E-2,-1.323792636E-1,5.239725113E-1
5.085570426E0,-6.777524948E-2,-9.770691395E-4,6.673736572E-1
5.090589384E0,-8.002525568E-2,1.443614364E-1,8.631401062E-1
5.095608342E0,-1.624709964E-1,2.552553117E-1,1.043063164E0
5.100627301E0,-3.053866029E-1,2.959690988E-1,1.195114136E0
5.105646259E0,-6.383770108E-1,2.805793285E-1,1.289463043E0
5.110665217E0,-8.599492311E-1,2.090337574E-1,1.205410957E0
5.115684176E0,-8.642929196E-1,1.379494369E-1,1.081840515E0
5.120703134E0,-6.572024822E-1,9.375566244E-2,9.342880249E-1
5.125722092E0,-3.978228569E-1,3.558716178E-2,8.153829575E-1
5.130741051E0,-1.882492304E-1,-4.597413540E-2,7.777652740E-1
5.135760009E0,-3.213882446E-2,-8.276796341E-2,7.807655334E-1
5.140778967E0,8.444768190E-2,-5.197095871E-2,8.267898560E-1
5.145797926E0,1.954337358E-1,1.527202129E-2,8.978834152E-1
5.150816884E0,2.580071688E-1,5.435693264E-2,9.426164627E-1
5.155835842E0,3.390985727E-1,4.747205973E-2,9.646091461E-1
5.160854801E0,3.587967753E-1,5.934858322E-2,9.734735489E-1
5.165873759E0,3.291477859E-1,4.601269960E-2,9.847917557E-1
5.170892717E0,3.170544505E-1,-6.032121181E-2,9.937877655E-1
5.175911676E0,3.888913095E-1,-1.218627691E-1,9.263038635E-1
5.180930634E0,5.423918366E-1,-1.011537910E-1,6.904239655E-1
5.185949592E0,4.465328157E-1,-1.037572622E-1,8.184099197E-1
5.190968551E0,3.370952010E-1,-3.090745211E-2,8.650045395E-1
5.195987509E0,2.269028425E-1,5.647742748E-2,8.099689484E-1
5.201006467E0,1.371786594E-1,1.344640851E-1,7.717723846E-1
5.206025426E0,9.738475084E-2,1.864962578E-1,6.678752899E-1
5.211044384E0,8.178883791E-2,2.006552517E-1,6.453723907E-1
5.216063342E0,3.657221794E-3,1.431257725E-1,7.124528885E-1
5.221082301E0,-1.216092110E-1,2.674680948E-2,7.553730011E-1
5.226101259E0,-1.718321443E-1,-7.901865244E-2,6.271219254E-1
5.231120217E0,-1.597191095E-1,-1.702354550E-1,5.025424957E-1
5.236139176E0,-1.061979532E-1,-2.312648892E-1,5.036468506E-1
5.241158134E0,-6.689715385E-2,-2.181232572E-1,5.119495392E-1
5.246177092E0,-4.852986336E-2,-2.086505294E-1,5.310621262E-1
5.251196051E0,-8.804374933E-2,-1.840255857E-1,4.808473587E-1
5.256215009E0,-7.760685682E-2,-1.741679907E-1,3.637952805E-1
5.261233967E0,-6.158274412E-2,-1.860633492E-1,2.541217804E-1
5.266252926E0,-1.968711615E-2,-1.884329319E-1,1.625900269E-1
5.271271884E0,-6.169080734E-3,-1.654367447E-1,1.943817139E-1
5.276290842E0,-3.093695641E-2,-1.040511131E-1,2.572402954E-1
5.281309801E0,-3.068929911E-2,-5.457234383E-2,3.379650116E-1
5.286328759E0,9.003281593E-3,-2.678263187E-2,3.922872543E-1
5.291347717E0,9.396702051E-2,-2.339178324E-2,4.046554565E-1
5.296366676E0,2.306793332E-1,-7.892835140E-2,3.786649704E-1
5.301385634E0,4.160680473E-1,-1.514753103E-1,3.370294571E-1
5.306404592E0,5.896965861E-1,-2.207623124E-1,3.167734146E-1
5.311423551E0,7.048887610E-1,-2.449377775E-1,3.178682327E-1
5.316442509E0,7.357034087E-1,-2.491929531E-1,3.128118515E-1
5.321461467E0,7.056593895E-1,-2.240804434E-1,3.172035217E-1
5.326480426E0,6.205422282E-1,-2.116354108E-1,3.729429245E-1
5.331499384E0,5.145195723E-1,-1.976816058E-1,3.436946869E-1
5.336518342E0,3.876721859E-1,-1.678104997E-1,2.367477417E-1
5.341537301E0,2.926747203E-1,-1.290452480E-1,7.014942169E-2
5.346556259E0,1.776368618E-1,-9.782892466E-2,-2.451705933E-2
5.351575217E0,4.708093405E-2,-1.201223135E-1,5.660438538E-2
5.356594176E0,5.241388083E-2,-1.096378565E-1,-4.541015625E-2
5.361613134E0,1.097522378E-1,-1.078524590E-1,-1.928005219E-1
5.366632092E0,1.035175920E-1,-9.187251329E-2,-2.718744278E-1
5.371651103E0,5.304783583E-2,-5.417925119E-2,-2.587642670E-1
5.376670269E0,6.226539612E-3,-2.237832546E-2,-2.217388153E-1
5.381689436E0,3.038322926E-2,-2.997446060E-2,-1.560230255E-1
5.386708603E0,1.132053733E-1,-3.408700228E-2,-8.441066742E-2
5.391727769E0,2.461605966E-1,-3.236418962E-2,-1.133251190E-1
5.396746936E0,4.459504485E-1,2.562266588E-2,-2.653341293E-1
5.401766103E0,4.748747051E-1,5.405378342E-2,-2.210063934E-1
5.406785269E0,4.378492236E-1,8.029437065E-2,-7.987308502E-2
5.411804436E0,3.835086524E-1,1.317257881E-1,1.801681519E-2
5.416823603E0,3.054260314E-1,2.035517693E-1,4.758071899E-2
5.421842769E0,2.405568361E-1,2.767482400E-1,1.966953278E-2
5.426861936E0,1.936249435E-1,3.239485025E-1,-3.454303741E-2
5.431881103E0,1.908391118E-1,3.653390408E-1,-8.451747894E-2
5.436900269E0,1.794030666E-1,4.103746414E-1,-1.019868851E-1
5.441919436E0,9.591835737E-2,4.318125248E-1,-1.037931442E-1
5.446938603E0,-3.787201643E-2,4.179685712E-1,-1.303758621E-1
5.451957769E0,-2.004798055E-1,3.847372532E-1,-1.209192276E-1
5.456976936E0,-3.287596703E-1,3.547641039E-1,-1.291589737E-1
5.461996103E0,-4.363455176E-1,3.314197063E-1,-1.193675995E-1
5.467015269E0,-6.603800654E-1,3.075531721E-1,-8.341121674E-2
5.472034436E0,-6.162506342E-1,2.092729211E-1,-8.688640594E-2
5.477053603E0,-3.558911085E-1,1.059211493E-1,-8.086585999E-2
5.482072769E0,-1.393511891E-1,2.927738428E-2,-8.923912048E-2
5.487091936E0,4.207497835E-2,-2.343750000E-2,-6.245613098E-3
5.492111103E0,1.488147080E-1,-5.006253719E-2,5.341911316E-2
5.497130269E0,1.973336637E-1,-5.193340778E-2,1.576471329E-1
5.502149436E0,2.036020160E-1,-3.623592854E-2,2.384185791E-1
5.507168603E0,2.381991744E-1,-1.503598690E-2,2.745676041E-1
5.512187769E0,2.806351185E-1,-7.187724113E-3,2.581701279E-1
5.517206936E0,2.930376232E-1,4.562807083E-2,2.324151993E-1
5.522226103E0,2.688106298E-1,9.686076641E-2,1.914710999E-1
5.527245269E0,2.248088717E-1,1.526106596E-1,1.532831192E-1
5.532264436E0,1.790593266E-1,1.794421673E-1,1.296844482E-1
5.537283603E0,1.540225446E-1,1.490355730E-1,1.027345657E-1
5.542302769E0,1.528479457E-1,1.176305413E-1,8.787918091E-2
5.547321936E0,1.477938890E-1,7.680290937E-2,6.362152100E-2
5.552341103E0,1.604322493E-1,-6.727576256E-3,3.478527069E-2
5.557360217E0,1.551719010E-1,-9.001266956E-2,1.920890808E-2
5.562379176E0,1.370859444E-1,-1.468807459E-1,1.764297485E-4
5.567398134E0,1.275810301E-1,-1.764940023E-1,1.805973053E-2
5.572417092E0,1.016690433E-1,-2.039259672E-1,4.288196564E-2
5.577436051E0,9.620887041E-2,-2.210338116E-1,5.557060242E-2
5.582455009E0,9.816643596E-2,-1.980942488E-1,7.999038696E-2
5.587473967E0,5.672600865E-2,-1.341637373E-1,7.570362091E-2
5.592492926E0,3.245770931E-3,-7.834720612E-2,9.517288208E-2
5.597511884E0,-1.892799139E-2,-2.688872814E-2,6.582355499E-2
5.602530842E0,-3.358861804E-2,2.965879440E-2,7.050514221E-3
5.607549801E0,-1.492789388E-1,9.883689880E-2,-9.986305237E-2
5.612568759E0,-3.774494231E-1,2.247260809E-1,-2.236394882E-1
5.617587717E0,-3.580829203E-1,1.859491467E-1,-7.095336914E-2
5.622606676E0,-2.473137677E-1,6.685090065E-2,-1.480102539E-3
5.627625634E0,-1.217837334E-1,2.343797684E-2,-3.004074097E-4
5.632644592E0,-5.901396275E-3,-1.007735729E-2,8.640289307E-4
5.637663551E0,1.197302639E-1,-1.634955406E-3,-1.577186584E-2
5.642682509E0,1.599973738E-1,2.703416348E-2,-5.599689484E-2
5.647701467E0,1.205224991E-1,1.067161560E-1,-1.041669846E-1
5.652720426E0,7.661956549E-2,1.445457339E-1,-1.815710068E-1
5.657739384E0,6.689488888E-2,1.459437013E-1,-1.965436935E-1
5.662758342E0,9.825050831E-2,1.525669694E-1,-1.555576324E-1
5.667777301E0,1.482059658E-1,1.178479791E-1,-1.338796616E-1
5.672796259E0,2.123193443E-1,2.052116394E-2,-1.052417755E-1
5.677815217E0,2.424571812E-1,-5.364573002E-2,-6.614494324E-2
5.682834176E0,2.546988726E-1,-8.456516266E-2,-7.957172394E-2
5.687853134E0,2.148699313E-1,-9.152960777E-2,-1.094589233E-1
5.692872092E0,1.409981549E-1,-5.930364132E-2,-1.141300201E-1
5.697891051E0,6.400606036E-2,-1.789331436E-4,-1.484212875E-1
5.702910009E0,-1.417368650E-3,7.522308826E-2,-2.097063065E-1
5.707928967E0,-3.450185061E-2,1.625326872E-1,-2.466669083E-1
5.712947926E0,-3.441345692E-2,2.071840763E-1,-2.867994308E-1
5.717966884E0,-2.032074332E-2,2.322521210E-1,-3.205547333E-1
5.722985842E0,-3.861841559E-2,2.142164111E-1,-3.325462341E-1
5.728004801E0,-5.362296104E-2,1.901983619E-1,-3.146533966E-1
5.733023759E0,-2.031299472E-2,1.732395291E-1,-2.742576599E-1
5.738042717E0,-4.598945379E-3,1.181848049E-1,-2.863359451E-1
5.743061676E0,-2.657524943E-1,4.004471302E-1,-2.614021301E-1
5.748080634E0,-1.448893547E-2,2.281994224E-1,-1.831989288E-1
5.753099592E0,-1.312489212E-1,4.170668125E-2,1.387643814E-1
5.758118551E0,-1.059238613E-1,1.507318020E-2,1.147289276E-1
5.763137509E0,-6.004866958E-2,2.663230896E-2,5.749130249E-2
5.768156467E0,-9.989887476E-3,-1.551485062E-2,-8.951663971E-2
5.773175426E0,3.283554316E-2,-7.076394558E-2,-3.645849228E-1
5.778194384E0,1.101338863E-1,-1.054764986E-1,-8.234357834E-1
5.783213342E0,2.995051146E-1,-1.441770792E-1,-5.812559128E-1
5.788232301E0,4.423580766E-1,-2.346833944E-1,-6.173944473E-1
5.793251259E0,3.805104494E-1,-2.280880213E-1,-5.057277679E-1
5.798270217E0,2.289685011E-1,-2.186093330E-1,-2.582445145E-1
5.803289176E0,1.018546820E-1,-1.703004837E-1,-3.048419952E-2
5.808308134E0,3.409123421E-2,-1.409983635E-1,1.088180542E-1
5.813327092E0,2.440157533E-2,-1.014673710E-1,2.351188660E-1
5.818346051E0,4.983681440E-2,-8.802354336E-2,3.460674286E-1
5.823365009E0,9.954155982E-2,-6.659638882E-2,4.369583130E-1
5.828383967E0,1.267932355E-1,-3.763175011E-2,4.924545288E-1
5.833402926E0,1.481828392E-1,-1.936042309E-2,5.412740707E-1
5.838421884E0,1.363152564E-1,3.273606300E-3,5.655813217E-1
5.843440842E0,1.138169020E-1,2.313303947E-2,5.916910172E-1
5.848459801E0,9.879717231E-2,3.168940544E-2,5.720624924E-1
5.853478759E0,1.018240750E-1,2.913880348E-2,5.569496155E-1
5.858497717E0,1.146468222E-1,2.143144608E-2,5.237503052E-1
5.863516676E0,1.206436902E-1,7.620573044E-3,4.738359451E-1
5.868535634E0,1.366821080E-1,-6.905078888E-3,3.730087280E-1
5.873554592E0,1.362271905E-1,-8.794903755E-3,2.858390808E-1
5.878573551E0,1.360014379E-1,-1.188290119E-2,1.837987900E-1
5.883592509E0,1.395288408E-1,-2.656459808E-3,6.588935852E-2
5.888611467E0,1.277284026E-1,-8.662939072E-4,-3.681564331E-2
5.893630426E0,1.174387038E-1,1.531183720E-2,-1.635551453E-1
5.898649384E0,1.168154925E-1,1.661193371E-2,-3.081245422E-1
5.903668342E0,9.120045602E-2,2.960026264E-2,-3.706150055E-1
5.908687301E0,5.711624026E-2,6.748414040E-2,-4.003639221E-1
5.913706259E0,4.789352417E-2,9.472894669E-2,-4.035367966E-1
5.918725217E0,3.994926810E-2,1.078637838E-1,-4.349546432E-1
5.923744228E0,3.115186095E-2,1.189848185E-1,-4.682464600E-1
5.928763394E0,3.699076176E-2,1.138598919E-1,-5.045814514E-1
5.933782561E0,4.150801897E-2,1.042213440E-1,-4.881906509E-1
5.938801728E0,6.195320189E-2,7.324838638E-2,-4.302444458E-1
5.943820894E0,6.108033657E-2,3.507030010E-2,-3.240184784E-1
5.948840061E0,6.767532229E-2,2.259421349E-2,-1.996431351E-1
5.953859228E0,6.911098957E-2,3.304600716E-3,-7.390880585E-2
5.958878394E0,6.120482087E-2,-3.136086464E-2,4.483413696E-2
5.963897561E0,4.816126823E-2,-3.995943069E-2,1.043958664E-1
5.968916728E0,5.135999620E-2,-5.141615868E-2,1.705255508E-1
5.973935894E0,3.608137369E-2,-6.240725517E-2,1.695251465E-1
5.978955061E0,3.436318040E-2,-6.230723858E-2,1.802892685E-1
5.983974228E0,2.779409289E-2,-3.350329399E-2,1.789512634E-1
5.988993394E0,2.229088545E-2,-4.527640343E-2,1.620206833E-1
5.994012561E0,4.860019684E-2,-1.519966125E-2,1.403322220E-1
5.999031728E0,4.844552279E-2,-1.624941826E-3,9.258842468E-2
6.004050894E0,5.651661754E-2,2.064883709E-2,7.600784302E-2
6.009070061E0,8.127006888E-2,3.276956081E-2,4.169559479E-2
6.014089228E0,8.095449209E-2,2.915072441E-2,-1.609897614E-2
6.019108394E0,7.355213165E-2,4.343223572E-2,-4.965686798E-2
6.024127561E0,6.600719690E-2,4.958295822E-2,-8.171176910E-2
6.029146728E0,3.818804026E-2,5.598151684E-2,-1.336421967E-1
6.034165894E0,5.307735503E-2,5.707991123E-2,-1.779260635E-1
6.039185061E0,5.209270120E-2,5.288434029E-2,-2.217588425E-1
6.044204228E0,6.038317084E-2,3.769624233E-2,-2.627401352E-1
6.049223394E0,3.878009319E-2,4.710531235E-2,-2.593584061E-1
6.054242561E0,3.040632606E-2,5.352318287E-2,-2.535381317E-1
6.059261728E0,3.535178304E-2,2.963018417E-2,-2.429265976E-1
6.064282926E0,4.046913981E-2,2.889335155E-2,-1.931676865E-1
6.069301780E0,3.871604800E-2,4.572987556E-3,-1.271715164E-1
6.074317821E0,5.240857601E-2,-7.661700249E-3,-6.291198730E-2
6.079334019E0,6.708341837E-2,-1.511085033E-2,-5.134582520E-3
6.084350426E0,7.794681191E-2,-4.953145981E-3,3.075408936E-2
6.089367196E0,8.145992458E-2,-2.325415611E-3,7.104206085E-2
6.094384384E0,8.956640959E-2,-1.547181606E-2,9.076595306E-2
6.099401988E0,8.571925759E-2,-1.223611832E-2,7.584762573E-2
6.104420009E0,7.950383425E-2,-9.429216385E-3,5.743598938E-2
6.109438446E0,8.290754259E-2,2.396106720E-3,3.911399841E-2
6.114457301E0,5.919751525E-2,9.060859680E-3,-1.648902893E-3
6.119476571E0,5.717942119E-2,2.316594124E-3,-3.854846954E-2
6.124496259E0,4.950207472E-2,1.320409775E-2,-6.210899353E-2
6.129516363E0,3.485855460E-2,9.570837021E-3,-9.143257141E-2
6.134536884E0,2.061495185E-2,1.302230358E-2,-9.439563751E-2
6.139557665E0,2.550643682E-2,1.179051399E-2,-1.032571793E-1
6.144578655E0,4.115796089E-2,1.534116268E-2,-9.067058563E-2
6.149599853E0,4.110544920E-2,1.553404331E-2,-9.715366364E-2
6.154621103E0,4.919821024E-2,1.714527607E-2,-9.049510956E-2
6.159642353E0,5.231568217E-2,2.491295338E-2,-8.742332458E-2
6.164662509E0,5.998156965E-2,2.332770824E-2,-9.503746033E-2
6.169681676E0,6.279620528E-2,1.716279984E-2,-8.950805664E-2
6.174700634E0,5.249747634E-2,1.965582371E-2,-8.517169952E-2
6.179719592E0,6.842911243E-2,4.010319710E-2,-6.303977966E-2
6.184738551E0,4.981631041E-2,2.958190441E-2,-8.025741577E-2
6.189757509E0,5.040621758E-2,2.992033958E-2,-7.120132446E-2
6.194776467E0,4.153138399E-2,1.369071007E-2,-4.796504974E-2
6.199795426E0,3.283971548E-2,2.363431454E-2,-3.917694092E-2
6.204814384E0,2.321475744E-2,1.324903965E-2,-1.266002655E-2
6.209833342E0,3.277128935E-2,3.005671501E-2,-1.013183594E-2
6.214852301E0,2.203756571E-2,1.811981201E-2,-2.892494202E-3
6.219871259E0,2.459058166E-2,7.444143295E-3,-5.209922791E-3
6.224890217E0,2.945390344E-2,2.356767654E-4,-2.787590027E-3
6.229909176E0,1.873496175E-2,5.928874016E-3,-2.297401428E-2
6.234928134E0,3.061993420E-2,-6.273150444E-3,-4.418659210E-2
6.239947092E0,3.404784203E-2,1.832842827E-3,-4.741287231E-2
6.244966051E0,3.971782327E-2,-9.211063385E-3,-6.724643707E-2
6.249985009E0,4.771113396E-2,-1.090526581E-3,-7.384490967E-2
6.255003967E0,4.024395347E-2,-1.367330551E-4,-7.088851929E-2
6.260022926E0,5.417950451E-2,1.631987095E-2,-6.319713593E-2
6.265041884E0,4.788275063E-2,1.033234596E-2,-7.927608490E-2
6.270060842E0,3.930118680E-2,2.104067802E-2,-6.791210175E-2
6.275079801E0,4.507538676E-2,1.146340370E-2,-5.545711517E-2
6.280098759E0,5.563709140E-2,9.143471718E-3,-4.665756226E-2
6.285117717E0,3.647518158E-2,5.719900131E-3,-2.961158752E-2
6.290136676E0,3.411296010E-2,-9.534835815E-3,-3.644752502E-2
6.295155634E0,4.236581922E-2,9.714365005E-3,-3.492641449E-2
6.300174592E0,3.862136602E-2,1.694571972E-2,-3.223037720E-2
6.305193551E0,4.080294073E-2,5.030155182E-3,-2.956962585E-2
6.310212509E0,4.052707553E-2,3.958225250E-3,-4.235839844E-2
6.315231467E0,4.983931780E-2,-5.556702614E-3,-5.624485016E-2
6.320250426E0,5.793875456E-2,5.139350891E-3,-5.696296692E-2
6.325269384E0,4.343387485E-2,-3.194689751E-3,-7.784843445E-2
6.330288342E0,2.912560105E-2,-5.616307259E-3,-7.245349884E-2
6.335307301E0,3.282487392E-2,8.642554283E-3,-6.947135925E-2
6.340326259E0,4.246030748E-2,1.209747791E-2,-6.651306152E-2
6.345345217E0,6.150864065E-2,1.079940796E-2,-7.782077789E-2
6.350364176E0,5.536869168E-2,2.733111382E-2,-6.529331207E-2
6.355383134E0,6.231985986E-2,2.953243256E-2,-5.523681641E-2
6.360402092E0,7.388950884E-2,2.109742165E-2,-4.169559479E-2
6.365421051E0,6.738220155E-2,3.304648399E-2,-3.062629700E-2
6.370440009E0,5.972905457E-2,2.957987785E-2,-2.082157135E-2
6.375458967E0,6.283311546E-2,2.025890350E-2,-3.364658356E-2
6.380477926E0,5.768446624E-2,3.852307796E-2,-2.971267700E-2
6.385496884E0,5.158947408E-2,4.844343662E-2,-6.140518188E-2
6.390515842E0,3.851495683E-2,3.933846951E-2,-9.163475037E-2
6.395534801E0,3.159031272E-2,5.534231663E-2,-9.429168701E-2
6.400553759E0,9.309142828E-3,4.158520699E-2,-8.148670197E-2
6.405572717E0,2.876684070E-2,2.557229996E-2,-9.846591949E-2
6.410591676E0,3.140360117E-2,1.930153370E-2,-5.711936951E-2
6.415610634E0,9.985879064E-3,1.068627834E-2,-2.799892426E-2
6.420629592E0,3.870621324E-3,2.178788185E-3,-1.930522919E-2
6.425648551E0,3.610700369E-3,-1.841783524E-4,-2.016258240E-2
6.430667509E0,1.773330569E-2,2.368950844E-2,-3.190040588E-3
6.435686467E0,2.144774795E-2,2.007687092E-2,-7.714271545E-3
6.440705426E0,4.054990411E-2,1.767361164E-2,-6.915473938E-2
6.445724384E0,2.907162905E-2,3.309369087E-3,-1.514244080E-1
6.450743342E0,2.446448803E-2,5.658507347E-3,-1.926269531E-1
6.455762301E0,3.803768754E-2,-8.854389191E-3,-1.623106003E-1
6.460781259E0,4.081669450E-2,-2.569139004E-2,-7.177639008E-2
6.465800217E0,4.462304711E-2,-2.827596664E-2,-4.025077820E-2
6.470819176E0,9.910276532E-2,-3.663873672E-2,6.424903870E-3
6.475838134E0,1.633695513E-1,-3.294336796E-2,2.660369873E-2
6.480857092E0,1.979303658E-1,-3.248941898E-2,2.755165100E-3
6.485876051E0,1.677253693E-1,-2.711796761E-2,-2.559757233E-2
6.490895009E0,9.821832180E-2,-2.510190010E-2,-6.315326691E-2
6.495913967E0,5.480709672E-2,-3.735780716E-2,-1.075057983E-1
6.500932926E0,4.283313453E-2,-3.053987026E-2,-1.146850586E-1
6.505951884E0,2.617529035E-2,-3.335177898E-2,-1.170663834E-1
6.510970842E0,4.524420202E-2,-1.389527321E-2,-6.249237061E-2
6.515989957E0,7.037402689E-2,-2.453744411E-2,-8.403778076E-3
6.521009123E0,9.356406331E-2,-2.236819267E-2,7.962703705E-2
6.526028290E0,1.113006920E-1,-1.706957817E-2,1.455116272E-1
6.531047457E0,9.778428078E-2,-6.243944168E-3,1.787643433E-1
6.536066623E0,8.392097056E-2,1.842629910E-2,1.796598434E-1
6.541085790E0,5.409158766E-2,4.497539997E-2,1.532163620E-1
6.546104957E0,3.545981646E-2,5.547738075E-2,7.233524323E-2
6.551124123E0,3.001978993E-2,9.325981140E-2,2.062892914E-2
6.556143290E0,1.506346464E-2,1.151136160E-1,-3.423500061E-2
6.561162457E0,2.122475207E-2,1.498739719E-1,-6.015396118E-2
6.566181623E0,1.047852635E-2,1.536328793E-1,-8.227920532E-2
6.571200790E0,7.226020098E-4,1.587418318E-1,-9.470272064E-2
6.576219957E0,-1.033127308E-2,1.343988180E-1,-1.164846420E-1
6.581239123E0,-3.108921647E-2,1.248509884E-1,-1.404170990E-1
6.586258290E0,-4.322201014E-3,9.447550774E-2,-1.130409241E-1
6.591277457E0,-8.926004171E-3,6.592726707E-2,-1.321411133E-1
6.596296623E0,-1.031410694E-2,2.150261402E-2,-1.213417053E-1
6.601315790E0,-3.598392010E-3,-1.260566711E-2,-1.212568283E-1
6.606334957E0,-6.699621677E-3,-2.827107906E-2,-9.145069122E-2
6.611354123E0,2.988338470E-3,-6.369078159E-2,-8.559989929E-2
6.616373290E0,-7.264912128E-4,-7.847845554E-2,-4.298019409E-2
6.621392457E0,-8.041769266E-3,-1.002260447E-1,-2.445220947E-2
6.626411623E0,3.733068705E-3,-1.136111021E-1,-1.621246338E-4
6.631430790E0,2.263212204E-2,-1.139804125E-1,2.390766144E-2
6.636449957E0,2.970719337E-2,-1.063333750E-1,5.367374420E-2
6.641469123E0,2.741061151E-2,-9.313547611E-2,1.045198441E-1
6.646488290E0,3.260800242E-2,-7.822668552E-2,1.014499664E-1
6.651507457E0,3.543731570E-2,-4.609715939E-2,1.066484451E-1
6.656526623E0,3.591480851E-2,-3.005409241E-2,1.010646820E-1
6.661545790E0,3.508727252E-2,4.484772682E-3,8.597373962E-2
6.666564957E0,8.096426725E-3,7.522225380E-3,5.789947510E-2
6.671584123E0,-5.546152592E-3,2.348697186E-2,3.835391998E-2
6.676603290E0,1.990064979E-2,2.026128769E-2,8.272171021E-3
6.681622457E0,1.191481948E-2,4.084002972E-2,-1.831054688E-4
6.686641623E0,1.325055957E-2,2.573871613E-2,-4.180145264E-2
6.691660790E0,1.332944632E-2,3.356039524E-2,-7.235145569E-2
6.696679957E0,1.787012815E-2,1.065874100E-2,-8.125782013E-2
6.701699123E0,3.165611625E-2,1.085090637E-2,-1.149749756E-1
6.706718134E0,3.822693229E-2,1.718199253E-2,-9.258460999E-2
6.711737092E0,5.294770002E-2,9.486198425E-3,-8.459091187E-2
6.716756051E0,5.676952004E-2,1.157140732E-2,-8.138084412E-2
6.721775009E0,7.473713160E-2,2.803790569E-2,-6.868076324E-2
6.726793967E0,8.893755078E-2,4.557251930E-2,-2.996826172E-2
6.731812926E0,1.114317775E-1,7.602655888E-2,-2.362728119E-2
6.736831884E0,1.435388625E-1,9.785807133E-2,-3.277111053E-2
6.741850842E0,1.280111074E-1,1.075222492E-1,-7.427215576E-3
6.746869801E0,6.017047167E-2,9.915947914E-2,4.973316193E-2
6.751888759E0,4.616498947E-3,1.001881361E-1,1.301307678E-1
6.756907717E0,-1.706317067E-2,9.867608547E-2,1.659145355E-1
6.761926676E0,-3.555351496E-2,6.622076035E-2,1.372995377E-1
6.766945634E0,-3.416517377E-2,1.496326923E-2,6.025791168E-2
6.771964592E0,-1.568263769E-2,-1.566636562E-2,-4.105663300E-2
6.776983551E0,7.178694010E-3,-5.189943314E-2,-1.130294800E-1
6.782005217E0,3.279000521E-2,-8.670997620E-2,-1.678085327E-1
6.787021259E0,6.334485114E-2,-9.512639046E-2,-1.592350006E-1
6.792037405E0,8.946052194E-2,-7.368838787E-2,-1.400508881E-1
6.797053759E0,9.378701448E-2,-4.883778095E-2,-8.541202545E-2
6.802070426E0,9.593111277E-2,-3.955936432E-2,-1.934337616E-2
6.807087509E0,5.367070436E-2,-3.634583950E-2,3.452301025E-3
6.812105009E0,2.434885502E-2,-9.430289268E-3,1.776218414E-2
6.817122926E0,2.544021606E-2,6.517171860E-4,5.452251434E-2
6.822141259E0,-4.276156425E-3,2.124321461E-2,4.585456848E-2
6.827160009E0,3.974586725E-3,2.843439579E-2,5.384731293E-2
6.832179176E0,2.361166477E-2,3.422188759E-2,5.936622620E-2
6.837198759E0,3.794720769E-2,4.453170300E-2,5.886554718E-2
6.842218759E0,4.722264409E-2,4.753148556E-2,5.241298676E-2
6.847239176E0,6.818346679E-2,6.704735756E-2,3.294277191E-2
6.852259905E0,6.743267179E-2,6.151437759E-2,2.788162231E-2
6.857280842E0,8.214274049E-2,7.257044315E-2,3.857612610E-3
6.862301988E0,7.526059449E-2,7.185649872E-2,-5.694389343E-3
6.867323238E0,6.708076596E-2,5.941927433E-2,-3.176975250E-2
6.872344488E0,7.421000302E-2,5.675029755E-2,-2.674388885E-2
6.877365009E0,7.278552651E-2,3.412961960E-2,-4.784870148E-2
6.882384384E0,7.603360713E-2,1.184964180E-2,-4.738998413E-2
6.887403342E0,4.600274563E-2,6.669402122E-3,-5.401515961E-2
6.892422301E0,4.853984714E-2,-7.886290550E-3,-6.412792206E-2
6.897441259E0,3.364370763E-2,-3.410303593E-2,-6.344890594E-2
6.902460217E0,2.753524482E-2,-3.514468670E-2,-3.783226013E-2
6.907479176E0,3.368483484E-2,-4.219293594E-2,-1.124668121E-2
6.912498134E0,3.727276623E-2,-4.575097561E-2,-6.273269653E-3
6.917517092E0,6.083472073E-2,-3.161299229E-2,3.543567657E-2
6.922536051E0,7.319130003E-2,-4.023587704E-2,5.896759033E-2
6.927555009E0,6.743733585E-2,-2.178072929E-2,6.801128387E-2
6.932573967E0,5.218745768E-2,-1.200485229E-2,6.744766235E-2
6.937592926E0,4.525646567E-2,1.414179802E-2,7.042217255E-2
6.942611884E0,2.643644810E-2,9.114623070E-3,3.655719757E-2
6.947630842E0,2.109017968E-2,3.365051746E-2,-6.055831909E-4
6.952649801E0,7.535442710E-3,3.888595104E-2,-6.704330444E-4
6.957668759E0,8.557081223E-3,4.408872128E-2,-4.109096527E-2
6.962687717E0,1.329219341E-2,4.922139645E-2,-6.336784363E-2
6.967706676E0,-1.027813554E-2,4.251658916E-2,-8.425426483E-2
6.972725634E0,-1.815636456E-2,4.553043842E-2,-1.013784409E-1
6.977744592E0,-1.045179367E-2,3.915214539E-2,-8.984947205E-2
6.982763551E0,1.741743088E-2,1.158845425E-2,-8.670520782E-2
6.987782509E0,6.992816925E-3,2.713215351E-2,-6.338500977E-2
6.992801467E0,1.074340940E-2,8.315801620E-3,-3.548622131E-2
6.997820426E0,2.386040986E-2,-7.572174072E-4,-1.018428802E-2
7.002839384E0,2.250987291E-2,-2.604484558E-3,6.597518921E-3
7.007858342E0,3.059402108E-2,-6.682276726E-3,3.750419617E-2
7.012877301E0,2.901780605E-2,8.307576180E-3,1.948261261E-2
7.017896259E0,1.800164580E-2,4.102468491E-3,2.297115326E-2
7.022915217E0,2.365171909E-2,9.297251701E-3,1.335048676E-2
7.027934176E0,1.150463521E-2,2.508258820E-2,6.177902222E-3
7.032953134E0,7.729977369E-3,2.400052547E-2,3.796577454E-3
7.037972092E0,-6.599381566E-3,2.044880390E-2,6.169319153E-3
7.042991051E0,-3.017291427E-3,1.915931702E-2,1.206398010E-2
7.048010009E0,-4.079326987E-3,1.784312725E-2,8.408546448E-3
7.053028967E0,1.399862766E-2,5.708456039E-3,-1.066780090E-2
7.058047926E0,1.765269041E-2,-3.937721252E-3,1.283645630E-3
7.063066884E0,2.335324883E-3,1.141524315E-2,-7.046699524E-3
7.068085842E0,9.674698114E-3,-8.971333504E-3,-3.192901611E-2
7.073104801E0,2.532203496E-2,-6.530761719E-3,-4.708957672E-2
7.078123759E0,3.725941479E-2,4.288434982E-3,-6.211185455E-2
7.083142717E0,3.132580221E-2,1.635777950E-2,-5.561542511E-2
7.088161676E0,4.087184370E-2,1.533508301E-2,-5.510044098E-2
7.093180634E0,4.563233256E-2,-1.009106636E-3,-4.032707214E-2
7.098199592E0,4.318359494E-2,5.419015884E-3,-3.991127014E-2
7.103218551E0,4.307267070E-2,1.146912575E-3,-1.812744141E-2
7.108237509E0,2.522076666E-2,9.953618050E-3,-3.646850586E-3
7.113256467E0,1.226423681E-2,1.040327549E-2,-3.529548645E-3
7.118275426E0,1.839867234E-2,1.323592663E-2,1.202011108E-2
7.123294384E0,2.571824193E-2,8.847355843E-3,2.386951447E-2
7.128313342E0,1.628497243E-2,7.934570312E-4,2.728843689E-2
7.133332301E0,2.239644527E-3,1.999127865E-2,1.760387421E-2
7.138351259E0,1.795272529E-2,1.400887966E-2,1.035976410E-2
7.143370217E0,3.702795506E-2,9.186744690E-3,1.147365570E-2
7.148389176E0,4.868395627E-2,1.153767109E-2,-2.066421509E-2
7.153408134E0,4.372763634E-2,1.140642166E-2,-5.058288574E-3
7.158427092E0,6.013016403E-2,5.318880081E-3,-9.770393372E-3
7.163446051E0,6.446656585E-2,-4.269361496E-3,2.178192139E-3
7.168465009E0,6.886231899E-2,7.591605186E-3,-2.633285522E-2
7.173483967E0,5.770951509E-2,-7.753372192E-4,-1.542568207E-2
7.178502926E0,6.805992126E-2,5.239009857E-3,-3.190231323E-2
7.183521884E0,4.158292711E-2,1.846408844E-2,-3.634929657E-2
7.188540842E0,5.469599366E-2,2.198302746E-2,-3.839492798E-2
7.193559801E0,4.648481309E-2,1.491558552E-2,-4.514789581E-2
7.198578759E0,3.356391191E-2,6.772041321E-3,-5.183887482E-2
7.203597717E0,3.381147981E-2,1.402330399E-2,-2.287578583E-2
7.208616884E0,2.927888930E-2,1.877605915E-2,3.462791443E-3
7.213636051E0,2.005177736E-2,6.922721863E-3,-7.211685181E-3
7.218655217E0,3.933189809E-2,6.922602654E-3,1.178741455E-3
7.223674384E0,1.561559737E-2,1.887059212E-2,1.662921906E-2
7.228693551E0,1.586136222E-2,9.286761284E-3,1.651096344E-2
7.233712717E0,2.669756114E-2,1.153612137E-2,3.061962128E-2
7.238731884E0,3.375266492E-2,4.362344742E-3,4.461956024E-2
7.243751051E0,3.127200902E-2,-5.112290382E-3,3.357696533E-2
7.248770217E0,4.058012366E-2,3.440856934E-3,7.211685181E-3
7.253789384E0,3.095521033E-2,5.934238434E-3,-2.012538910E-2
7.258808551E0,2.870851755E-2,1.090848446E-2,-3.890132904E-2
7.263827717E0,2.897603810E-2,3.013968468E-2,-5.988407135E-2
7.268846884E0,2.915680408E-2,3.740286827E-2,-7.831001282E-2
7.273866051E0,1.864233613E-2,4.105854034E-2,-6.096649170E-2
7.278885217E0,2.816072106E-2,1.139318943E-2,-3.428554535E-2
7.283904384E0,1.361431181E-2,1.404023170E-2,-7.076263428E-4
7.288923551E0,-4.588901997E-3,7.268667221E-3,-3.012657166E-3
7.293942717E0,-1.337438822E-3,2.198195457E-2,2.319908142E-2
7.298961884E0,-8.761793375E-3,2.830004692E-2,3.376579285E-2
7.303981051E0,1.183310151E-2,2.984344959E-2,5.376243591E-2
7.309000217E0,-6.772279739E-4,2.049231529E-2,-3.917789459E-2
7.314019384E0,4.088580608E-4,-1.026034355E-2,-1.182603836E-1
7.319038551E0,-2.774620056E-2,-1.599812508E-2,-9.460258484E-2
7.324057717E0,1.170733571E-2,-1.126658916E-2,-2.848243713E-2
7.329076884E0,2.216765285E-2,-3.520786762E-2,4.530906677E-2
7.334096051E0,4.805357754E-2,-2.458119392E-2,7.093524933E-2
7.339115217E0,1.070429981E-1,-1.630580425E-2,3.104400635E-2
7.344134384E0,1.678930223E-1,-5.403161049E-3,4.593849182E-3
7.349153551E0,1.613000631E-1,1.050817966E-2,-3.818607330E-2
7.354172717E0,1.153867692E-1,7.635235786E-3,-7.578372955E-2
7.359191884E0,5.527050793E-2,-4.536509514E-3,-1.142091751E-1
7.364211051E0,-6.119087338E-3,-2.479994297E-2,-1.463460922E-1
7.369230217E0,-2.078418434E-2,-3.528046608E-2,-1.390256882E-1
7.374249384E0,-1.664800942E-2,-3.755629063E-2,-9.262657166E-2
7.379268551E0,1.924914122E-2,-4.831838608E-2,-3.596496582E-2
7.384287717E0,5.733218789E-2,-6.519818306E-2,3.680515289E-2
7.389306884E0,9.903214127E-2,-5.137920380E-2,1.231794357E-1
7.394326051E0,1.186658293E-1,-4.875659943E-2,1.886110306E-1
7.399345217E0,8.680881560E-2,-2.747380733E-2,2.226057053E-1
7.404364384E0,6.071604788E-2,-1.865446568E-2,2.040395737E-1
7.409383342E0,4.011856019E-2,1.474809647E-2,1.499862671E-1
7.414402301E0,1.869276166E-2,4.755961895E-2,8.209705353E-2
7.419421259E0,6.797075272E-3,7.993054390E-2,5.273342133E-2
7.424440217E0,-4.110708833E-3,1.332842112E-1,-1.083469391E-2
7.429459176E0,-2.460180223E-2,1.470711231E-1,-4.419136047E-2
7.434478134E0,-2.728866041E-2,1.655700207E-1,-5.826854706E-2
7.439497092E0,-3.485210240E-2,1.626855135E-1,-7.221031189E-2
7.444516051E0,-3.646621108E-2,1.530090570E-1,-6.937026978E-2
7.449535009E0,-2.397622168E-2,1.282901764E-1,-7.956981659E-2
7.454553967E0,-2.960841358E-2,8.650803566E-2,-8.248710632E-2
7.459572926E0,-4.604125023E-2,6.570339203E-2,-7.938289642E-2
7.464591884E0,-2.577742934E-2,3.599965572E-2,-8.693218231E-2
7.469610842E0,-2.244827151E-2,6.932973862E-3,-8.249282837E-2
7.474629801E0,-2.527576685E-2,-2.627944946E-2,-7.448196411E-2
7.479648759E0,-1.655250788E-2,-5.774521828E-2,-7.481384277E-2
7.484667717E0,-9.117126465E-4,-6.514132023E-2,-5.020713806E-2
7.489686676E0,7.445096970E-3,-1.032780409E-1,-2.460861206E-2
7.494705634E0,1.919206977E-2,-9.606158733E-2,9.073257446E-3
7.499724592E0,4.407945275E-2,-1.057288647E-1,4.482364655E-2
7.504745530E0,7.120865583E-2,-9.075641632E-2,7.191276550E-2
7.509763446E0,7.561691105E-2,-9.886324406E-2,9.871768951E-2
7.514781363E0,7.646840811E-2,-7.528412342E-2,1.038694382E-1
7.519799280E0,6.441098452E-2,-3.450727463E-2,8.755111694E-2
7.524817196E0,5.967985094E-2,-2.056062222E-2,1.009931564E-1
7.529835269E0,5.032742023E-2,1.078319550E-2,7.392024994E-2
7.534853551E0,3.395548463E-2,2.146768570E-2,4.110527039E-2
7.539872040E0,2.959954739E-2,2.021396160E-2,3.349685669E-2
7.544890738E0,2.634666860E-2,4.630315304E-2,-1.203441620E-2
7.549909644E0,6.364643574E-3,4.973685741E-2,-5.004882812E-2
7.554928759E0,1.847368479E-2,4.036259651E-2,-7.583904266E-2
7.559948082E0,1.134029031E-2,4.797053337E-2,-8.475399017E-2
7.564967613E0,2.074289322E-2,3.329288960E-2,-8.286571503E-2
7.569987353E0,2.637115121E-2,2.149951458E-2,-7.381629944E-2
7.575007144E0,3.069956601E-2,2.555716038E-2,-7.429313660E-2
7.580026936E0,5.394341052E-2,2.734923363E-2,-5.575180054E-2
7.585046728E0,5.076664686E-2,2.462148666E-2,-2.189922333E-2
7.590066519E0,6.908442080E-2,2.316641808E-2,-1.878738403E-4
7.595086311E0,7.059830427E-2,3.007304668E-2,2.728462219E-2
7.600106103E0,6.626698375E-2,3.565764427E-2,5.333137512E-2
7.605125894E0,5.863271654E-2,3.753292561E-2,5.896949768E-2
7.610145061E0,6.551185250E-2,3.665792942E-2,3.602218628E-2
7.615164019E0,5.706904829E-2,3.560745716E-2,4.934310913E-3
7.620182978E0,3.789845109E-2,4.504346848E-2,3.817558289E-2
7.625201936E0,1.394119859E-2,6.474626064E-2,8.889102936E-2
7.630220894E0,3.059545159E-2,4.371678829E-2,1.189727783E-1
7.635239853E0,2.748914063E-2,5.957448483E-2,7.757759094E-2
7.640258811E0,1.920662820E-2,4.091680050E-2,-9.745597839E-3
7.645277769E0,2.150982618E-3,5.097258091E-2,-9.393978119E-2
7.650296728E0,1.350101829E-2,3.129577637E-2,-1.192636490E-1
7.655315686E0,2.515840530E-2,1.013278961E-5,-1.360721588E-1
7.660334644E0,2.978128195E-2,-1.773583889E-2,-9.337711334E-2
7.665353603E0,4.200947285E-2,-3.401839733E-2,-6.053352356E-2
7.670372561E0,6.588861346E-2,-4.405963421E-2,-2.438068390E-2
7.675391519E0,4.864293337E-2,-3.253173828E-2,1.387977600E-2
7.680410478E0,3.103658557E-2,-5.894613266E-2,3.167915344E-2
7.685429436E0,8.141756058E-3,-5.308771133E-2,2.322483063E-2
7.690448394E0,-2.383011580E-2,-3.784942627E-2,5.341529846E-3
7.695467353E0,-3.321859241E-2,-2.995443344E-2,6.580352783E-3
7.700486311E0,-2.384915948E-2,-2.354550362E-2,1.370143890E-2
7.705505269E0,-7.239580154E-4,5.105376244E-3,2.427673340E-2
7.710524228E0,1.119464636E-2,2.388000488E-2,2.523612976E-2
7.715543186E0,2.785567939E-2,2.326726913E-2,4.277324677E-2
7.720562144E0,3.964164853E-2,3.556573391E-2,3.402614594E-2
7.725581103E0,4.427492619E-2,6.084525585E-2,5.503749847E-2
7.730600061E0,3.823259473E-2,7.276844978E-2,4.380702972E-2
7.735619019E0,4.277965426E-2,7.162237167E-2,2.793216705E-2
7.740637978E0,5.063113570E-2,7.782769203E-2,1.532554626E-3
7.745656936E0,3.330907226E-2,6.750309467E-2,-2.225685120E-2
7.750675894E0,3.836837411E-2,5.146992207E-2,-3.752422333E-2
7.755694853E0,3.839173913E-2,4.412734509E-2,-4.195022583E-2
7.760713811E0,4.312478006E-2,2.529692650E-2,-5.341529846E-2
7.765732769E0,5.258940160E-2,6.827831268E-3,-6.237983704E-2
7.770751728E0,5.160741508E-2,-1.873493195E-3,-7.243251801E-2
7.775770686E0,5.211326480E-2,-6.734013557E-3,-4.437351227E-2
7.780789644E0,4.809117317E-2,-1.160669327E-2,-1.536369324E-2
7.785808603E0,4.887631536E-2,-2.127516270E-2,-9.162902832E-3
7.790827561E0,5.908891559E-2,-2.968680859E-2,-6.578445435E-3
7.795846519E0,5.952811241E-2,-3.108632565E-2,3.156661987E-2
7.800865478E0,6.928165257E-2,-2.186548710E-2,3.613853455E-2
7.805884436E0,6.113417447E-2,-2.723741531E-2,5.962562561E-2
7.810903394E0,6.372193992E-2,-1.375007629E-2,6.389617920E-2
7.815922353E0,5.922341347E-2,-2.926826477E-3,4.792499542E-2
7.820941311E0,5.362734199E-2,4.114031792E-3,4.156494141E-2
7.825960269E0,2.921660244E-2,6.115078926E-3,1.385974884E-2
7.830979228E0,1.581512392E-2,1.631820202E-2,-8.878707886E-3
7.835998186E0,-4.457622766E-3,2.527523041E-2,-2.310943604E-2
7.841017144E0,-1.259307563E-2,2.222955227E-2,-4.909801483E-2
7.846036103E0,-1.102261245E-2,2.635991573E-2,-7.011508942E-2
7.851055061E0,-2.358138561E-2,1.507246494E-2,-5.058383942E-2
7.856074019E0,-1.445263624E-3,1.235735416E-2,-3.830909729E-2
7.861092978E0,2.131462097E-4,-9.300708771E-4,-2.612590790E-2
7.866111936E0,5.240693688E-3,-4.455447197E-3,8.529663086E-3
7.871130894E0,8.930966258E-3,8.847475052E-3,-1.003265381E-3
7.876149853E0,2.312910557E-2,2.094316483E-2,-2.350521088E-2
7.881168811E0,2.399021387E-2,1.406097412E-2,-1.375389099E-2
7.886187769E0,1.641835272E-2,9.764909744E-3,-1.688957214E-3
7.891206728E0,2.193838358E-2,2.680909634E-2,-3.128337860E-2
7.896225686E0,2.269351482E-2,2.001965046E-2,-1.076507568E-2
7.901244644E0,1.398921013E-2,1.802361012E-2,-1.416015625E-2
7.906263603E0,2.207060158E-2,1.718151569E-2,-2.099990845E-3
7.911282717E0,3.955617547E-3,1.615095139E-2,3.001213074E-2
7.916301884E0,1.577854156E-2,9.179592133E-3,3.574085236E-2
7.921321051E0,2.725929022E-3,9.312152863E-3,4.022693634E-2
7.926340217E0,1.354461908E-2,1.990973949E-2,2.208709717E-2
7.931359384E0,2.989247441E-3,-4.122734070E-3,1.951599121E-2
7.936378551E0,2.583347261E-2,8.831858635E-3,1.532554626E-3
7.941397717E0,3.787662089E-2,-4.360437393E-3,-5.601882935E-3
7.946416884E0,3.557008505E-2,7.500410080E-3,-1.861095428E-2
7.951436051E0,2.605119348E-2,1.451492310E-2,-3.626251221E-2
7.956455217E0,2.245591581E-2,8.481383324E-3,-3.120326996E-2
7.961474384E0,2.969504893E-2,-1.055026054E-2,-3.330516815E-2
7.966493551E0,2.251569927E-2,-1.031172276E-2,-4.368495941E-2
7.971512717E0,1.661671698E-2,1.493060589E-2,-2.903556824E-2
7.976531884E0,1.917275786E-2,4.476547241E-3,-2.161121368E-2
7.981551051E0,5.113437772E-3,1.666498184E-2,-1.188278198E-3
7.986570217E0,2.561791241E-2,2.284288406E-2,-9.422302246E-3
7.991589384E0,1.859481633E-2,2.065753937E-2,-3.344535828E-3
7.996608551E0,1.883982122E-2,2.088880539E-2,-2.059936523E-3
8.001627717E0,2.026613057E-2,2.696418762E-2,-4.360198975E-3
8.006646884E0,1.452043653E-2,2.466821671E-2,-5.457878113E-3
8.011666051E0,2.413421869E-2,2.713859081E-2,-7.735252380E-3
8.016685217E0,2.655605972E-2,1.533007622E-2,2.443122864E-2
8.021704384E0,3.022922575E-2,1.775085926E-2,4.080772400E-3
8.026723551E0,2.321077883E-2,1.299881935E-2,-6.723403931E-4
8.031742717E0,2.441322803E-2,-8.293509483E-3,-1.250457764E-2
8.036761884E0,2.326428890E-2,1.810300350E-2,-4.052162170E-3
8.041781051E0,4.103393853E-2,7.428646088E-3,-7.551193237E-3
8.046800217E0,2.786427736E-2,3.964304924E-3,-8.646965027E-3
8.051819384E0,2.536682785E-2,4.155635834E-3,-1.922321320E-2
8.056838551E0,3.475047648E-2,7.996439934E-3,-2.257442474E-2
8.061857717E0,3.572933376E-2,-8.323669434E-3,-2.351665497E-2
8.066876884E0,3.330667317E-2,1.114261150E-2,-1.850605011E-2
8.071896051E0,4.287974536E-2,3.157377243E-3,-7.597923279E-3
8.076915217E0,4.297775030E-2,1.428210735E-2,-1.694965363E-2
8.081934384E0,4.435093701E-2,-3.211021423E-3,-1.198101044E-2
8.086953551E0,3.504915535E-2,1.381564140E-2,-8.249282837E-3
8.091972717E0,3.285939991E-2,4.531860352E-3,1.087474823E-2
8.096991884E0,3.306411207E-2,1.077055931E-2,2.034568787E-2
8.102011051E0,2.836154401E-2,8.547067642E-3,1.190948486E-2
8.107030217E0,3.447496891E-2,6.249189377E-3,3.202438354E-2
8.112049384E0,2.973681688E-2,2.798438072E-3,5.909252167E-2
8.117068551E0,2.497701347E-2,1.943051815E-2,6.098651886E-2
8.122087561E0,2.734485269E-2,1.214230061E-2,5.810832977E-2
8.127106519E0,3.332902491E-2,1.207232475E-2,3.745460510E-2
8.132125478E0,1.913374662E-2,7.331728935E-3,2.648353577E-2
8.137144436E0,2.067419887E-2,3.351223469E-2,-8.131980896E-3
8.142163394E0,1.268480718E-2,2.502119541E-2,-4.246425629E-2
8.147182353E0,2.138176560E-2,3.320777416E-2,-4.327201843E-2
8.152201311E0,8.502081037E-3,3.665387630E-2,-4.287719727E-2
8.157220269E0,1.808619499E-2,2.115559578E-2,-2.942276001E-2
8.162239228E0,3.587171435E-3,2.009463310E-2,-1.370143890E-2
8.167258186E0,-4.236102104E-4,1.559829712E-2,7.104873657E-4
8.172277144E0,-1.161448658E-2,7.625341415E-3,-1.348304749E-2
8.177296103E0,9.272664785E-3,3.080153465E-2,2.826595306E-2
8.182315061E0,2.568148077E-2,3.723227978E-2,1.745605469E-2
8.187334019E0,1.828953624E-2,2.936983109E-2,-3.240680695E-2
8.192352978E0,5.672961473E-3,1.424694061E-2,-1.079549789E-1
8.197371936E0,-2.269195020E-2,1.339364052E-2,-1.128273010E-1
8.202390894E0,7.654309273E-3,-1.144516468E-2,-3.936767578E-2
8.207409853E0,2.001285553E-2,-6.631016731E-3,5.237865448E-2
8.212428811E0,3.228080273E-2,-1.722228527E-2,8.870124817E-2
8.217447769E0,7.736819983E-2,-3.935813904E-3,6.177330017E-2
8.222468551E0,1.490372419E-1,4.733681679E-3,2.797603607E-2
8.227487613E0,1.790545136E-1,1.005673409E-2,-1.854133606E-2
8.232506571E0,1.303033084E-1,3.119885921E-2,-6.814002991E-2
8.237525530E0,6.868542731E-2,1.917695999E-2,-1.113290787E-1
8.242544488E0,1.408436894E-2,-5.737066269E-3,-1.470127106E-1
8.247563446E0,-2.572408319E-2,-6.611347198E-3,-1.218366623E-1
8.252582405E0,-3.459483385E-2,-2.885937691E-2,-9.687995911E-2
8.257601363E0,-2.120153606E-2,-5.823910236E-2,-3.061962128E-2
8.262620321E0,3.700181842E-2,-5.671525002E-2,4.573726654E-2
8.267639280E0,6.777650118E-2,-6.032562256E-2,1.166610718E-1
8.272658238E0,1.014627665E-1,-5.590426922E-2,1.703472137E-1
8.277677196E0,9.649108350E-2,-5.536425114E-2,2.140636444E-1
8.282696155E0,7.565306127E-2,-2.561461926E-2,2.170000076E-1
8.287715113E0,5.562643707E-2,-1.540613174E-2,1.676483154E-1
8.292734071E0,3.244911134E-2,2.640724182E-2,1.447763443E-1
8.297753030E0,2.739460766E-2,6.759846210E-2,7.338428497E-2
8.302771988E0,4.486516118E-3,8.089959621E-2,4.172515869E-2
8.307790946E0,-7.642447948E-3,9.876179695E-2,2.337455750E-2
8.312809905E0,3.981322050E-3,1.200387478E-1,-1.144313812E-2
8.317828863E0,-9.557262063E-3,1.554472446E-1,-2.340888977E-2
8.322847821E0,-1.838724315E-2,1.360299587E-1,-4.832458496E-2
8.327866780E0,-2.851372957E-2,1.336736679E-1,-5.756282806E-2
8.332885738E0,-1.386970282E-2,1.055055857E-1,-6.906032562E-2
8.337904696E0,-2.223424613E-2,8.633220196E-2,-5.309963226E-2
8.342923655E0,-1.761952043E-2,7.130396366E-2,-7.520008087E-2
8.347942613E0,-3.340743482E-2,5.675756931E-2,-8.400917053E-2
8.352961571E0,-3.736707568E-2,1.978874207E-5,-7.131767273E-2
8.357980530E0,-1.654052734E-2,-1.673603058E-2,-6.937217712E-2
8.362999488E0,-2.687051892E-2,-2.966177464E-2,-4.843044281E-2
8.368018446E0,-1.708772779E-2,-6.253230572E-2,-3.002166748E-2
8.373037405E0,-9.854555130E-3,-9.635412693E-2,-1.296329498E-2
8.378056363E0,1.980426908E-2,-9.564900398E-2,2.054500580E-2
8.383075321E0,3.267674148E-2,-1.164839268E-1,5.137729645E-2
8.388094280E0,5.384127796E-2,-1.030119658E-1,6.766510010E-2
8.393113238E0,6.778332591E-2,-1.007333994E-1,1.015672684E-1
8.398132196E0,7.457199693E-2,-7.159173489E-2,1.101951599E-1
8.403151155E0,7.432495058E-2,-5.015087128E-2,1.175165176E-1
8.408170113E0,5.997420847E-2,-2.561032772E-2,8.437633514E-2
8.413189071E0,5.645158887E-2,-3.940105438E-3,5.740547180E-2
8.418208030E0,4.598502815E-2,5.548238754E-3,4.014015198E-2
8.423226988E0,2.010871470E-2,3.272545338E-2,1.113986969E-2
8.428245946E0,2.759480476E-2,5.379474163E-2,1.945495605E-4
8.433264905E0,1.584866643E-2,5.694305897E-2,-2.846240997E-2
8.438283863E0,1.598860323E-2,5.085241795E-2,-5.921268463E-2
8.443302821E0,2.426148951E-2,5.688059330E-2,-5.288124084E-2
8.448321780E0,3.703805804E-2,4.180943966E-2,-6.792926788E-2
8.453340738E0,2.817633748E-2,3.774058819E-2,-5.433368683E-2
8.458359696E0,3.820025921E-2,3.747332096E-2,-4.201412201E-2
8.463378655E0,4.330968857E-2,3.270328045E-2,-1.551628113E-2
8.468397613E0,4.952445626E-2,2.809107304E-2,-1.652717590E-2
8.473416571E0,4.853956401E-2,1.049530506E-2,1.096630096E-2
8.478435530E0,5.239823461E-2,1.325142384E-2,2.399158478E-2
8.483454488E0,4.448942840E-2,2.186954021E-2,2.978134155E-2
8.488473446E0,5.447587371E-2,8.891582489E-3,3.906154633E-2
8.493492405E0,6.462895870E-2,2.549517155E-2,9.064674377E-3
8.498511363E0,5.112679303E-2,1.448607445E-2,3.390407562E-2
8.503530321E0,3.631305695E-2,3.782677650E-2,8.699607849E-2
8.508549384E0,1.214304566E-2,5.604124069E-2,1.004438400E-1
8.513568551E0,2.046960592E-2,6.567823887E-2,1.018972397E-1
8.518587717E0,1.282787323E-2,4.915916920E-2,5.469036102E-2
8.523606884E0,7.066592574E-3,5.407536030E-2,-2.891921997E-2
8.528626051E0,4.169970751E-3,4.472792149E-2,-7.857704163E-2
8.533645217E0,1.740837097E-2,2.720332146E-2,-1.135797501E-1
8.538664384E0,3.432968259E-2,-7.818937302E-4,-9.369564056E-2
8.543683551E0,4.309841990E-2,-2.845644951E-2,-7.754993439E-2
8.548702717E0,6.088523567E-2,-4.030346870E-2,-3.421878815E-2
8.553721884E0,5.258634686E-2,-6.382834911E-2,1.351737976E-2
8.558741051E0,3.423917294E-2,-5.626630783E-2,4.069232941E-2
8.563760217E0,8.399024606E-3,-5.818593502E-2,3.442955017E-2
8.568779384E0,4.768982530E-3,-4.940903187E-2,3.179645538E-2
8.573798551E0,-1.774115860E-2,-4.550850391E-2,1.018428802E-2
8.578822301E0,-3.325255215E-2,-3.121590614E-2,1.482105255E-2
8.583839592E0,-1.701556146E-2,-7.661938667E-3,2.651500702E-2
8.588856884E0,-2.431929111E-3,9.617924690E-3,3.333282471E-2
8.593874228E0,2.602764964E-2,3.490734100E-2,4.006576538E-2
8.598891780E0,4.241169989E-2,4.203844070E-2,5.384445190E-2
8.603909540E0,5.269779265E-2,5.025851727E-2,4.613399506E-2
8.608927509E0,5.940113962E-2,6.078422070E-2,4.561233521E-2
8.613945686E0,5.292004347E-2,7.132625580E-2,3.323745728E-2
8.618964071E0,3.578494489E-2,6.646335125E-2,1.267337799E-2
8.623982717E0,3.285582364E-2,7.124137878E-2,-7.708549500E-3
8.629001728E0,2.263313532E-2,6.797921658E-2,-2.550697327E-2
8.634020946E0,3.492212296E-2,5.780184269E-2,-5.144214630E-2
8.639040373E0,3.163741529E-2,4.675412178E-2,-4.982471466E-2
8.644060009E0,3.066602349E-2,2.528166771E-2,-5.294513702E-2
8.649079853E0,2.623920143E-2,1.245129108E-2,-6.076431274E-2
8.654099905E0,3.627516329E-2,3.418087959E-3,-4.950141907E-2
8.659120113E0,3.468412161E-2,-1.614773273E-2,-3.712463379E-2
8.664140321E0,3.918899596E-2,-3.792333603E-2,-2.603530884E-2
8.669160530E0,4.012262821E-2,-3.096234798E-2,1.592636108E-3
8.674180738E0,5.869317055E-2,-4.084539413E-2,1.590251923E-2
8.679200946E0,6.622725725E-2,-4.119765759E-2,2.889537811E-2
8.684220946E0,6.289710104E-2,-3.458070755E-2,5.362415314E-2
8.689240217E0,5.462534726E-2,-4.443526268E-3,3.775501251E-2
8.694259176E0,6.312099099E-2,-5.511283875E-3,3.031635284E-2
8.699278134E0,5.017232895E-2,-3.087043762E-3,2.174091339E-2
8.704297092E0,3.388752043E-2,2.180969715E-2,1.441860199E-2
8.709316051E0,8.513882756E-3,4.042136669E-2,-2.355575562E-3
8.714335009E0,-3.479242325E-3,5.895388126E-2,-2.728557587E-2
8.719353967E0,-9.013593197E-3,6.774520874E-2,-3.895282745E-2
8.724372926E0,-1.781988144E-2,6.812584400E-2,-3.627395630E-2
8.729391884E0,-9.874403477E-3,7.695567608E-2,-3.596973419E-2
8.734410842E0,-1.388120651E-2,5.616295338E-2,-3.565025330E-2
8.739429801E0,2.309754491E-3,5.818963051E-2,-2.938461304E-2
8.744448759E0,1.615345478E-3,2.475345135E-2,-3.976917267E-2
8.749467717E0,1.025292277E-2,1.307857037E-2,-4.886627197E-2
8.754486676E0,5.597934127E-3,6.379365921E-3,-4.006671906E-2
8.759505634E0,-1.471668482E-3,-1.084494591E-2,-3.013801575E-2
8.764524592E0,1.647302508E-2,-2.659678459E-2,-2.264595032E-2
8.769543551E0,-3.001242876E-4,-1.611351967E-2,-2.471828461E-2
8.774562509E0,-3.817319870E-3,-2.702462673E-2,-2.082633972E-2
8.779581467E0,9.764879942E-4,-2.848708630E-2,-1.698875427E-2
8.784600426E0,-1.204116642E-2,-2.760326862E-2,1.411533356E-2
8.789619384E0,-9.439066052E-3,-3.400218487E-2,2.713298798E-2
8.794638342E0,-1.032739878E-2,-3.339493275E-2,2.339935303E-2
8.799657301E0,-7.551595569E-3,-2.348768711E-2,4.816246033E-2
8.804676259E0,-7.110133767E-3,-1.494216919E-2,3.827953339E-2
8.809695217E0,1.346765459E-2,-6.645441055E-3,5.219364166E-2
8.814714176E0,1.928478479E-3,-3.321886063E-3,4.816436768E-2
8.819733134E0,1.416687667E-2,-1.275539398E-3,8.544921875E-3
8.824752092E0,1.922057569E-2,4.188060760E-3,6.037712097E-3
8.829771051E0,1.001483202E-2,1.667475700E-2,-2.390861511E-3
8.834790009E0,1.516039670E-2,2.193629742E-2,-1.668453217E-2
8.839808967E0,1.550495625E-2,3.427827358E-2,-8.304595947E-3
8.844827926E0,1.573649049E-2,2.286410332E-2,-1.660251617E-2
8.849846884E0,2.784882486E-2,1.874327660E-2,-1.888370514E-2
8.854865842E0,1.972818375E-2,1.948487759E-2,-1.519680023E-2
8.859884801E0,2.349300683E-2,2.033662796E-2,-1.864814758E-2
8.864903759E0,3.320835531E-2,1.050472260E-3,-2.324867249E-2
8.869922717E0,3.318595886E-2,1.167905331E-2,-3.136634827E-2
8.874941676E0,2.364292741E-2,-1.472234726E-3,-1.447772980E-2
8.879960634E0,3.784602880E-2,-9.737730026E-3,-1.197433472E-2
8.884979592E0,3.288860619E-2,-9.610056877E-3,-1.661300659E-2
8.889998551E0,5.050833523E-2,1.249194145E-3,-1.052379608E-2
8.895017509E0,4.674889147E-2,-1.652383804E-2,-1.398468018E-2
8.900036467E0,4.194049537E-2,-7.012724876E-3,7.489204407E-3
8.905055426E0,4.673023522E-2,-2.375090122E-2,1.475334167E-3
8.910074384E0,4.325601459E-2,-2.148139477E-2,1.805019379E-2
8.915093342E0,3.993621469E-2,-1.221275330E-2,1.666641235E-2
8.920112301E0,4.375585914E-2,-3.137350082E-3,9.342193604E-3
8.925131259E0,2.978068590E-2,-1.328516006E-2,2.223873138E-2
8.930150217E0,4.565159976E-2,-7.799863815E-4,2.909469604E-2
8.935169176E0,4.448530078E-2,1.035678387E-2,3.706264496E-2
8.940188134E0,4.923856258E-2,1.534914970E-2,4.732036591E-2
8.945207092E0,4.076699913E-2,1.685416698E-2,2.308082581E-2
8.950226051E0,4.425582290E-2,1.838421822E-2,3.228759766E-2
8.955245061E0,3.702241182E-2,2.712678909E-2,1.531696320E-2
8.960264228E0,4.900841415E-2,3.468918800E-2,-1.811695099E-2
8.965283394E0,3.365506232E-2,3.044617176E-2,-4.056644440E-2
8.970302561E0,3.153574467E-2,3.823912144E-2,-4.737758636E-2
8.975321728E0,1.884007454E-2,4.598009586E-2,-5.175304413E-2
8.980340894E0,1.805895567E-2,4.557812214E-2,-3.943824768E-2
8.985360061E0,7.681950927E-3,2.857530117E-2,-9.420394897E-3
8.990379228E0,-1.355706155E-2,2.132391930E-2,3.737449646E-3
8.995398394E0,-1.449820399E-2,4.748821259E-3,6.115913391E-3
9.000417561E0,-3.203372657E-2,2.758479118E-2,3.104496002E-2
9.005436728E0,-3.980599344E-2,2.658820152E-2,5.222415924E-2
9.010455894E0,-1.257775724E-2,3.508734703E-2,3.168869019E-2
9.015475061E0,-1.867662370E-2,3.990495205E-2,-4.207038879E-2
9.020494228E0,-3.515011072E-2,1.006412506E-2,-1.282625198E-1
9.025513394E0,-3.202855587E-3,-6.613969803E-3,-1.769351959E-1
9.030532561E0,3.722655773E-2,-2.333796024E-2,-1.243410110E-1
9.035551728E0,3.857132792E-2,-5.200994015E-2,-3.428173065E-2
9.040570894E0,3.188580275E-2,-5.914187431E-2,2.053451538E-2
9.045590061E0,6.409750879E-2,-6.017768383E-2,7.011985779E-2
9.050609228E0,1.215688437E-1,-5.530846119E-2,8.009719849E-2
9.055628394E0,1.467309743E-1,-4.196202755E-2,6.509780884E-2
9.060647561E0,1.304531544E-1,-4.165124893E-2,2.413558960E-2
9.065666728E0,5.803491175E-2,-4.594719410E-2,-9.322166443E-3
9.070685894E0,2.246984839E-2,-4.306805134E-2,-6.266498566E-2
9.075705061E0,-6.594806910E-4,-1.524221897E-2,-9.418010712E-2
9.080724228E0,1.441347599E-2,-1.395499706E-2,-9.697055817E-2
9.085743394E0,3.410556912E-2,-5.735516548E-3,-9.026622772E-2
9.090762561E0,5.861529708E-2,5.798459053E-3,-3.615474701E-2
9.095781728E0,7.868154347E-2,1.700556278E-2,3.173160553E-2
9.100800894E0,9.949092567E-2,1.715266705E-2,1.073427200E-1
9.105820061E0,7.587943971E-2,3.607118130E-2,1.395769119E-1
9.110839228E0,5.570623279E-2,4.162895679E-2,1.691684723E-1
9.115858394E0,1.027587056E-2,5.761253834E-2,1.462688446E-1
9.120877561E0,-1.187756658E-2,8.885514736E-2,9.269905090E-2
9.125896728E0,-3.625145555E-2,9.259641171E-2,3.602504730E-2
9.130915894E0,-4.410213232E-2,1.117501259E-1,-1.424407959E-2
9.135935061E0,-2.981603146E-2,1.083294153E-1,-6.764793396E-2
9.140954228E0,-2.797883749E-2,1.170029640E-1,-9.803390503E-2
9.145973394E0,-2.544105053E-2,1.306093931E-1,-9.964942932E-2
9.150992561E0,-2.212393284E-2,1.027719975E-1,-9.648323059E-2
9.156011728E0,-4.776805639E-3,6.722903252E-2,-9.329319000E-2
9.161030894E0,-8.055210114E-3,6.195485592E-2,-7.466316223E-2
9.166050061E0,1.547813416E-3,2.264523506E-2,-6.089115143E-2
9.171069228E0,4.728674889E-3,5.403637886E-3,-3.769493103E-2
9.176088394E0,1.356488466E-2,-1.863753796E-2,-2.060890198E-2
9.181107561E0,1.610136032E-2,-3.272509575E-2,-3.637313843E-3
9.186126676E0,2.319037914E-2,-3.585505486E-2,-4.595756531E-3
9.191145634E0,3.124904633E-2,-4.956269264E-2,1.464366913E-2
9.196164592E0,3.808456659E-2,-6.093478203E-2,2.420330048E-2
9.201183551E0,3.901237249E-2,-8.771061897E-2,3.842449188E-2
9.206202509E0,4.115039110E-2,-7.658016682E-2,3.705310822E-2
9.211221467E0,4.711332917E-2,-5.866408348E-2,5.584430695E-2
9.216240426E0,4.008761048E-2,-6.023693085E-2,5.543804169E-2
9.221259384E0,5.457690358E-2,-4.905986786E-2,7.873344421E-2
9.226278342E0,3.941023350E-2,-2.880883217E-2,7.211303711E-2
9.231297301E0,4.939699173E-2,2.965569496E-3,5.484008789E-2
9.236316259E0,4.156562686E-2,2.136361599E-2,3.176975250E-2
9.241335217E0,2.901431918E-2,3.476929665E-2,2.905941010E-2
9.246354176E0,1.638728380E-2,3.986930847E-2,2.639770508E-3
9.251373134E0,2.751031518E-2,4.861855507E-2,-1.404666901E-2
9.256392092E0,1.708975434E-2,3.960227966E-2,-3.888702393E-2
9.261411051E0,2.199012041E-2,2.734315395E-2,-5.518245697E-2
9.266430009E0,2.540498972E-2,1.195967197E-2,-6.299209595E-2
9.271448967E0,2.499979734E-2,5.383491516E-4,-5.526924133E-2
9.276467926E0,3.743743896E-2,-5.846142769E-3,-5.115032196E-2
9.281486884E0,5.568319559E-2,3.447771072E-3,-2.685832977E-2
9.286505842E0,6.425952911E-2,6.768822670E-3,1.741981506E-2
9.291524801E0,5.611321330E-2,-4.143714905E-3,2.453231812E-2
9.296543759E0,6.475785375E-2,3.961801529E-3,4.107570648E-2
9.301562717E0,4.733112454E-2,2.262175083E-2,5.628776550E-2
9.306581676E0,5.521064997E-2,1.954162121E-2,6.778812408E-2
9.311600634E0,4.659670591E-2,2.343773842E-2,5.068111420E-2
9.316619592E0,3.113633394E-2,3.891301155E-2,1.112842560E-2
9.321638551E0,3.458595276E-2,4.457843304E-2,2.885532379E-2
9.326657509E0,2.112835646E-2,5.718564987E-2,7.370948792E-2
9.331676467E0,4.195225239E-2,7.784068584E-2,9.441757202E-2
9.336695426E0,5.329617858E-2,8.647060394E-2,8.528518677E-2
9.341714384E0,3.296679258E-2,7.733285427E-2,3.114700317E-2
9.346733342E0,2.168697119E-2,6.489217281E-2,-5.217552185E-2
9.351752301E0,2.972191572E-2,6.222832203E-2,-9.678363800E-2
9.356771259E0,1.821139455E-2,2.417016029E-2,-1.338815689E-1
9.361790217E0,5.161505938E-2,4.441380501E-3,-1.504669189E-1
9.366809176E0,5.836796761E-2,-1.616907120E-2,-1.360359192E-1
9.371828134E0,5.434143543E-2,-4.961216450E-2,-7.660865784E-2
9.376847092E0,3.620591760E-2,-6.484103203E-2,-8.156776428E-3
9.381866051E0,5.433082581E-3,-8.351469040E-2,5.498313904E-2
9.386885009E0,-1.039594412E-2,-7.363510132E-2,8.079338074E-2
9.391903967E0,-2.123019099E-2,-8.174979687E-2,8.856964111E-2
9.396922926E0,-2.733573318E-2,-5.559027195E-2,8.200073242E-2
9.401941884E0,-1.693522930E-2,-3.343451023E-2,7.544898987E-2
9.406960842E0,-9.435266256E-3,-1.994025707E-2,6.891536713E-2
9.411979801E0,-1.074549556E-2,1.215231419E-2,3.626346588E-2
9.416998759E0,2.440306544E-2,2.720165253E-2,3.827762604E-2
9.422017717E0,4.126241803E-2,3.975069523E-2,2.602481842E-2
9.427036676E0,7.100671530E-2,7.238781452E-2,-8.681297302E-3
9.432055634E0,5.657529831E-2,7.167160511E-2,-8.647918701E-3
9.437074592E0,5.660504103E-2,7.460129261E-2,-1.809787750E-2
9.442093603E0,3.997388482E-2,7.183146477E-2,-2.268218994E-2
9.447112769E0,2.832901478E-2,5.383312702E-2,-3.432369232E-2
9.452131936E0,3.450363874E-2,3.986716270E-2,-3.395080566E-2
9.457151103E0,3.234082460E-2,3.808212280E-2,-5.254554749E-2
9.462170269E0,2.191913128E-2,1.624786854E-2,-2.822971344E-2
9.467189436E0,1.758286357E-2,-6.452083588E-3,-3.377246857E-2
9.472208603E0,7.551223040E-3,-6.368756294E-3,-2.738666534E-2
9.477227769E0,4.882365465E-3,-2.418339252E-2,-2.069473267E-3
9.482246936E0,8.280575275E-3,-3.364622593E-2,2.539920807E-2
9.487266103E0,1.874747872E-2,-4.073321819E-2,3.481864929E-2
9.492285269E0,4.086154699E-2,-3.370487690E-2,4.531764984E-2
9.497304436E0,4.480612278E-2,-3.989684582E-2,4.383563995E-2
9.502323603E0,5.569317937E-2,-3.077089787E-2,4.708671570E-2
9.507342769E0,3.439083695E-2,-1.951277256E-2,1.941967010E-2
9.512361936E0,3.340277076E-2,-8.411526680E-3,-3.277778625E-3
9.517381103E0,3.485253453E-2,1.344799995E-3,-1.392364502E-2
9.522400269E0,2.801322937E-2,1.091790199E-2,-2.805709839E-2
9.527419436E0,1.063939929E-2,2.865386009E-2,-3.614521027E-2
9.532438603E0,1.002678275E-2,4.510474205E-2,-3.347301483E-2
9.537457769E0,1.064121723E-2,4.005110264E-2,-4.031944275E-2
9.542476936E0,-5.253344774E-3,4.222655296E-2,-3.878593445E-2
9.547496103E0,-7.828325033E-3,2.777707577E-2,-2.182865143E-2
9.552515269E0,-1.142543554E-2,2.197635174E-2,-3.227806091E-2
9.557534436E0,7.588565350E-3,1.858532429E-2,-1.890087128E-2
9.562553603E0,-4.358202219E-3,1.417493820E-2,-5.612373352E-3
9.567572769E0,8.635580540E-3,2.770781517E-3,-5.481719971E-3
9.572591936E0,1.677203178E-2,-6.110191345E-3,5.340576172E-3
9.577611103E0,1.645216346E-2,-3.060936928E-3,1.250648499E-2
9.582630269E0,3.854492307E-2,-4.681706429E-3,1.843833923E-2
9.587649436E0,4.262480140E-2,5.504131317E-3,1.718521118E-2
9.592668603E0,3.470930457E-2,7.295489311E-3,-1.867294312E-3
9.597687769E0,3.506991267E-2,1.728034019E-2,-1.128196716E-2
9.602706936E0,2.947768569E-2,1.523137093E-2,1.142215729E-2
9.607726103E0,2.166658640E-2,1.435995102E-2,-1.473522186E-2
9.612745269E0,1.631867886E-2,1.109623909E-2,-1.574897766E-2
9.617764436E0,2.663141489E-2,8.881092072E-3,-1.796054840E-2
9.622783603E0,1.093974710E-2,1.264703274E-2,-1.183509827E-2
9.627802769E0,-5.635172129E-3,5.709528923E-3,-8.127212524E-3
9.632821936E0,-1.245012879E-2,9.514451027E-3,2.674102783E-3
9.637841103E0,-2.043920755E-2,-4.597902298E-3,7.437705994E-3
9.642860269E0,-2.367699146E-2,-2.329182625E-2,1.216793060E-2
9.647879436E0,-1.381462812E-2,-2.643632889E-2,1.447868347E-2
9.652898603E0,1.372155547E-2,-3.300261497E-2,2.865600586E-2
9.657917769E0,3.618773818E-2,-3.950083256E-2,8.288383484E-3
9.662938655E0,4.532918334E-2,-1.738905907E-2,1.659011841E-2
9.667958759E0,4.482600093E-2,9.758472443E-4,5.826950073E-3
9.672972926E0,5.026409030E-2,1.219534874E-2,5.855560303E-3
9.677987196E0,4.511746764E-2,2.568423748E-2,7.075309753E-3
9.683001780E0,5.189917982E-2,4.968261719E-2,-1.190757751E-2
9.688016884E0,3.372237086E-2,6.406092644E-2,-1.647377014E-2
9.693032717E0,2.642552555E-2,5.573737621E-2,-3.287601471E-2
9.698049384E0,1.330149174E-2,6.400060654E-2,-2.659988403E-2
9.703066884E0,3.734350204E-3,4.615521431E-2,-3.748893738E-3
9.708085217E0,-5.877882242E-3,4.503917694E-2,2.246570587E-2
9.713104384E0,-2.030143142E-2,2.022647858E-2,3.353118896E-3
9.718124384E0,-2.160248160E-2,7.527112961E-3,1.408100128E-2
9.723145113E0,-9.865224361E-3,2.261042595E-3,1.643848419E-2
9.728166467E0,-8.832663298E-3,1.607155800E-2,2.590847015E-2
9.733188342E0,3.058111668E-2,1.801562309E-2,4.463195801E-3
9.738210634E0,1.988221705E-2,3.369212151E-3,-6.899929047E-2
9.743233238E0,1.514199376E-2,-1.808524132E-3,-1.275949478E-1
9.748255946E0,2.134469151E-2,-1.180970669E-2,-1.311073303E-1
9.753278655E0,3.921279311E-2,-4.800546169E-2,-5.867290497E-2
9.758299488E0,5.122143030E-2,-2.823615074E-2,2.020263672E-2
9.763318446E0,7.778483629E-2,-3.950178623E-2,7.581329346E-2
9.768337405E0,1.246283725E-1,-2.328932285E-2,7.634449005E-2
9.773356363E0,1.593554914E-1,-2.131652832E-2,4.247188568E-2
9.778375321E0,1.553005278E-1,5.792617798E-3,8.933067322E-3
9.783394280E0,1.031855941E-1,-2.897024155E-3,-1.749992371E-3
9.788413238E0,2.585533261E-2,4.020810127E-3,-5.505371094E-2
9.793432196E0,-1.256197691E-2,-1.630473137E-2,-1.102600098E-1
9.798451155E0,-2.781087160E-2,-1.866853237E-2,-1.139564514E-1
9.803470113E0,-8.541375399E-3,-1.862406731E-2,-1.318655014E-1
9.808489071E0,1.076565683E-2,-1.986896992E-2,-9.502887726E-2
9.813508030E0,4.803836346E-2,-3.078031540E-2,-3.952407837E-2
9.818526988E0,5.463679135E-2,-1.926398277E-2,6.060695648E-2
9.823545946E0,8.803431690E-2,-2.469146252E-2,1.052799225E-1
9.828564905E0,9.444916248E-2,-1.137685776E-2,1.697301865E-1
9.833583863E0,6.934896111E-2,-1.035499573E-2,2.039318085E-1
9.838602821E0,2.707792819E-2,-3.727912903E-3,1.748943329E-1
9.843621780E0,2.101540565E-2,2.876389027E-2,1.508235931E-1
9.848640738E0,1.271718740E-2,6.554925442E-2,8.300590515E-2
9.853659696E0,-1.696813107E-2,8.893060684E-2,3.473949432E-2
9.858678655E0,-1.206822693E-2,1.240416765E-1,-2.434730530E-3
9.863697613E0,-6.268575788E-3,1.458022594E-1,-3.336906433E-2
9.868716571E0,-2.565291524E-2,1.497031450E-1,-7.946395874E-2
9.873735530E0,-1.661972702E-2,1.431818008E-1,-6.696701050E-2
9.878754488E0,-2.089276910E-2,1.357451677E-1,-5.573177338E-2
9.883773446E0,-2.409824729E-2,1.132360697E-1,-5.523300171E-2
9.888792405E0,-3.228813410E-2,7.567369938E-2,-5.234336853E-2
9.893811363E0,-2.046293020E-2,2.810931206E-2,-3.636837006E-2
9.898830321E0,-3.739964962E-2,1.455235481E-2,-2.047634125E-2
9.903849280E0,-8.112281561E-3,-2.002882957E-2,-2.486801147E-2
9.908868238E0,-1.600164175E-2,-4.228520393E-2,-1.898765564E-3
9.913887196E0,-1.345118880E-2,-7.844245434E-2,-1.658439636E-3
9.918906155E0,-9.828031063E-3,-8.467340469E-2,-3.805160522E-3
9.923925113E0,1.032823324E-2,-1.039251089E-1,5.933761597E-3
9.928944071E0,2.322855592E-2,-1.113505363E-1,2.387237549E-2
9.933963030E0,2.066722512E-2,-9.744644165E-2,2.977657318E-2
9.938981988E0,5.732738972E-2,-8.641600609E-2,6.287765503E-2
9.944000946E0,4.993197322E-2,-7.575726509E-2,7.548522949E-2
9.949019905E0,3.901889920E-2,-4.654204845E-2,9.742927551E-2
9.954038863E0,3.902128339E-2,-2.262961864E-2,8.828353882E-2
9.959057821E0,4.274177551E-2,-6.253957748E-3,8.986854553E-2
9.964076780E0,4.038491845E-2,1.565194130E-2,6.765460968E-2
9.969095738E0,3.565278649E-2,3.144109249E-2,4.918861389E-2
9.974114696E0,3.453123569E-2,3.983247280E-2,3.085327148E-2
9.979133655E0,3.807160258E-2,5.296778679E-2,-3.795623779E-4
9.984152613E0,2.364370227E-2,4.951381683E-2,-2.421188354E-2
9.989171571E0,3.532406688E-2,2.377772331E-2,-5.374813080E-2
9.994190530E0,3.960216045E-2,3.652775288E-2,-4.975986481E-2
9.999209488E0,3.554493189E-2,1.968908310E-2,-5.408573151E-2
1.000422855E1,4.334202409E-2,2.463984489E-2,-5.121040344E-2
1.000924772E1,4.515334964E-2,2.621924877E-2,-3.763961792E-2
1.001426793E1,3.987637162E-2,2.435326576E-2,-1.941394806E-2
1.001928918E1,3.577116132E-2,2.258157730E-2,-3.702163696E-3
1.002430959E1,3.298252821E-2,3.038728237E-2,2.494812012E-2
1.002932886E1,4.917836189E-2,2.980399132E-2,3.555011749E-2
1.003434782E1,3.923520446E-2,3.723764420E-2,5.077075958E-2
1.003936678E1,2.591061592E-2,2.904915810E-2,5.160140991E-2
1.004438574E1,5.071474612E-2,3.856766224E-2,3.340816498E-2
1.004940470E1,4.944381118E-2,2.528369427E-2,7.036209106E-3
1.005442366E1,3.016448021E-2,2.852082253E-2,4.495143890E-2
1.005944261E1,8.277177811E-3,4.936754704E-2,9.557247162E-2
1.006446157E1,1.263552904E-2,6.291818619E-2,1.018495560E-1
1.006948053E1,1.397854090E-2,6.571197510E-2,5.585956573E-2
1.007449949E1,1.735469699E-2,7.446205616E-2,-3.482818604E-2
1.007951845E1,7.252663374E-3,5.960536003E-2,-1.294565201E-1
