"Time (s)","Linear Acceleration x (m/s^2)","Linear Acceleration y (m/s^2)","Linear Acceleration z (m/s^2)"
7.282163100E-2,-6.580209732E-2,1.435127258E-1,4.614276886E-1
7.792163100E-2,-8.662962914E-2,1.581168175E-2,3.397712708E-1
8.302163100E-2,-1.291670799E-1,-2.371287346E-2,1.728286743E-1
8.812163100E-2,-1.882319450E-1,-2.689981461E-2,2.972602844E-3
9.322163100E-2,-2.412402630E-1,-1.178503036E-2,-2.151403427E-1
9.832163100E-2,-3.083298206E-1,-3.096628189E-2,-4.716138840E-1
1.034216310E-1,-3.590078354E-1,-1.152873039E-1,-7.196636200E-1
1.085216310E-1,-4.078726768E-1,-2.230072021E-1,-9.131956100E-1
1.136216310E-1,-4.816391468E-1,-3.610180616E-1,-1.093168259E0
1.187216310E-1,-5.441610813E-1,-4.671353102E-1,-1.309997559E0
1.238216310E-1,-6.341350079E-1,-5.080935955E-1,-1.415038109E0
1.289216310E-1,-6.551427841E-1,-5.153398514E-1,-1.206262589E0
1.340216310E-1,-5.882520676E-1,-4.895467758E-1,-9.486503601E-1
1.391216310E-1,-5.611147881E-1,-4.164519310E-1,-6.160001755E-1
1.442216310E-1,-6.139453650E-1,-3.176494837E-1,-3.996467590E-1
1.493216310E-1,-7.541787624E-1,-2.226288319E-1,-4.492044449E-1
1.544216310E-1,-9.198142290E-1,-1.933414936E-1,-5.970773697E-1
1.595216310E-1,-1.076262474E0,-2.523938417E-1,-8.727254868E-1
1.646216310E-1,-1.069907665E0,-4.661188126E-1,-1.275096416E0
1.697216310E-1,-1.301294088E0,-8.040945530E-1,-1.418481827E0
1.748216310E-1,-8.750849962E-1,-8.734486103E-1,-1.412887096E0
1.799216310E-1,-3.683823347E-1,-7.986332178E-1,-1.310105801E0
1.850216310E-1,-8.081567287E-2,-7.530841827E-1,-1.044102669E0
1.901144950E-1,9.115827084E-2,-6.806581020E-1,-7.611389160E-1
1.951728810E-1,2.212007046E-1,-6.220017672E-1,-5.534496307E-1
2.001919950E-1,2.221266031E-1,-6.468465328E-1,-4.632301331E-1
2.052109540E-1,1.558204889E-1,-6.527522802E-1,-4.374504089E-1
2.102299120E-1,1.026222706E-1,-6.588602066E-1,-4.815492630E-1
2.152488700E-1,-3.976321220E-2,-7.163612843E-1,-6.113452911E-1
2.202678290E-1,-2.140541077E-1,-7.415364981E-1,-8.810100555E-1
2.252867870E-1,-3.953473568E-1,-7.294062376E-1,-1.146029949E0
2.303057450E-1,-6.386996508E-1,-7.337225676E-1,-1.251116753E0
2.353247040E-1,-8.508652449E-1,-6.576295495E-1,-1.165205956E0
2.403436620E-1,-9.891474247E-1,-6.736779213E-1,-1.386129856E0
2.453626200E-1,-1.178489208E0,-7.346801758E-1,-1.582391262E0
2.503815790E-1,-1.378176451E0,-7.328954935E-1,-1.577434063E0
2.554005370E-1,-1.548360825E0,-6.866984367E-1,-1.422070026E0
2.604194950E-1,-1.631381750E0,-6.881673336E-1,-1.114418030E0
2.654384540E-1,-1.303164244E0,-9.461023211E-1,-4.120788574E-1
2.704574120E-1,-1.212053657E0,-1.112271667E0,-1.168909073E-1
2.754763700E-1,-1.150858641E0,-1.210649848E0,2.845411301E-1
2.804953290E-1,-1.023856282E0,-1.245969534E0,7.228260040E-1
2.855142870E-1,-9.688369036E-1,-1.254743099E0,1.157978058E0
2.905332450E-1,-1.051694751E0,-1.203443766E0,1.489348412E0
2.955522040E-1,-1.208964348E0,-1.128477335E0,1.698928833E0
3.005711620E-1,-1.344267011E0,-1.063074112E0,1.749960899E0
3.055901200E-1,-1.386684895E0,-1.042246103E0,1.727326393E0
3.106090790E-1,-1.347678185E0,-1.109729767E0,1.703845978E0
3.156280370E-1,-1.320976734E0,-1.162312984E0,1.615741730E0
3.206469950E-1,-1.295274496E0,-1.167873621E0,1.486211777E0
3.256659540E-1,-1.257261992E0,-1.111263752E0,1.327495575E0
3.306849120E-1,-1.233926058E0,-1.015203238E0,1.086824417E0
3.357038700E-1,-1.183618426E0,-8.452129364E-1,8.654117584E-1
3.407228290E-1,-1.138898611E0,-6.185641289E-1,6.321401596E-1
3.457417870E-1,-1.167451501E0,-4.230285287E-1,3.835039139E-1
3.507607450E-1,-1.218965411E0,-2.097826004E-1,3.413534164E-1
3.557797040E-1,-1.335042238E0,-7.527828217E-2,2.101182938E-1
3.607986620E-1,-1.438562632E0,-1.456552744E-2,1.585464478E-1
3.658176720E-1,-1.496753693E0,-1.288151741E-2,1.465711594E-1
3.708368390E-1,-1.536994219E0,-1.184417605E-1,2.704982758E-1
3.758560060E-1,-1.621541858E0,-3.635212183E-1,4.164419174E-1
3.808751720E-1,-1.673649311E0,-6.309846640E-1,5.369901657E-1
3.858943390E-1,-1.671249032E0,-8.855525255E-1,6.266603470E-1
3.909135060E-1,-1.650336504E0,-1.103094816E0,7.260932922E-1
3.959326720E-1,-1.598000526E0,-1.252719879E0,9.462938309E-1
4.009518390E-1,-1.607368112E0,-1.290238142E0,1.170004845E0
4.059710060E-1,-1.710881948E0,-1.229868531E0,1.302707672E0
4.109901720E-1,-1.755789757E0,-1.158416629E0,1.333748817E0
4.160093390E-1,-1.696380734E0,-1.069212437E0,1.366055489E0
4.210285060E-1,-1.607206464E0,-9.838340282E-1,1.270713806E0
4.260476720E-1,-1.533115268E0,-8.827384710E-1,1.091782570E0
4.310668390E-1,-1.445388317E0,-8.377193213E-1,8.739414215E-1
4.360860060E-1,-1.414669991E0,-7.963371873E-1,6.317501068E-1
4.411051720E-1,-1.414824843E0,-7.103178501E-1,3.973388672E-1
4.461243390E-1,-1.462878227E0,-5.922892690E-1,1.646051407E-1
4.511435060E-1,-1.603993058E0,-4.831404686E-1,1.180582047E-1
4.561626720E-1,-1.710811853E0,-3.435203433E-1,1.774559021E-1
4.611818390E-1,-1.737733126E0,-1.665250361E-1,2.090349197E-1
4.662010060E-1,-1.675299406E0,3.686174005E-2,1.988763809E-1
4.712201720E-1,-1.490453124E0,1.622219384E-1,2.018680573E-1
4.762393390E-1,-1.238914967E0,2.090626955E-1,2.699575424E-1
4.812585060E-1,-9.673399925E-1,1.920880675E-1,3.610124588E-1
4.862776720E-1,-7.161652446E-1,5.977654457E-2,4.167556763E-1
4.912968390E-1,-4.808508456E-1,-1.641666591E-1,6.484069824E-1
4.963160060E-1,-2.836421430E-1,-3.581247926E-1,8.610839844E-1
5.013351720E-1,-4.299566150E-2,-4.232502282E-1,1.309803963E0
5.063543390E-1,7.300892472E-2,-4.021755159E-1,1.685375214E0
5.113735060E-1,-5.750954151E-4,-3.483940959E-1,1.717262268E0
5.163926720E-1,-2.175410986E-1,-2.990152836E-1,1.625843048E0
5.214118390E-1,-5.330871344E-1,-2.950403690E-1,1.369665146E0
5.264310060E-1,-8.515878916E-1,-3.080448508E-1,1.192120552E0
5.314501720E-1,-1.089980006E0,-2.844246030E-1,1.190835953E0
5.364693390E-1,-1.216851830E0,-1.548544168E-1,1.191033363E0
5.414885060E-1,-1.256295204E0,-3.423358500E-2,1.189124107E0
5.465076720E-1,-1.220684052E0,7.494479418E-3,1.202868462E0
5.515268390E-1,-1.153029799E0,1.025837660E-2,1.194124222E0
5.565460060E-1,-1.140784144E0,-1.839642227E-2,1.189152718E0
5.615651720E-1,-1.189838886E0,-3.304460645E-2,1.095360756E0
5.665843390E-1,-1.264504910E0,-1.337933540E-2,9.906101227E-1
5.716035060E-1,-1.297233820E0,-1.146918535E-2,8.547983170E-1
5.766226720E-1,-1.282837152E0,4.384219646E-3,7.463006973E-1
5.816418390E-1,-1.236966372E0,3.109326959E-2,6.886196136E-1
5.866610060E-1,-1.184216022E0,-8.539706469E-3,6.623630524E-1
5.916801720E-1,-1.135985613E0,-3.253051639E-2,6.993246078E-1
5.966993390E-1,-1.061766267E0,-2.116662264E-2,7.064476013E-1
6.017185060E-1,-8.992591500E-1,6.046184897E-2,6.816682816E-1
6.067376720E-1,-6.087722778E-1,1.966236979E-1,7.665796280E-1
6.117612140E-1,-3.062051535E-1,2.534171939E-1,7.857780457E-1
6.167785060E-1,-4.956853390E-2,2.098969519E-1,8.370666504E-1
6.217957970E-1,4.049623013E-2,3.603464365E-2,8.535966873E-1
6.268130890E-1,1.808583736E-2,-1.270589530E-1,8.154010773E-1
6.318305890E-1,-3.337669373E-2,-1.875771880E-1,6.967515945E-1
6.368482970E-1,-1.165637970E-1,-1.426965296E-1,5.766029358E-1
6.418662140E-1,-1.748929620E-1,-8.175468445E-2,4.109640121E-1
6.468843390E-1,-2.910982370E-1,-5.984246731E-2,1.443309784E-1
6.519026720E-1,-1.911838651E-1,5.479842424E-3,2.324056625E-1
6.569214220E-1,-1.256521940E-1,1.040104032E-1,1.807289124E-1
6.619403810E-1,-8.879321814E-2,1.738260984E-1,1.209917068E-1
6.669595470E-1,-6.335192919E-2,2.174491584E-1,1.043596268E-1
6.719789220E-1,-1.099777222E-2,2.576303482E-1,8.300685883E-2
6.769985060E-1,5.620634556E-2,2.102317512E-1,6.886005402E-2
6.820182970E-1,6.424123049E-2,1.364548504E-1,2.857112885E-2
6.870382970E-1,1.037856340E-1,1.359661520E-1,6.330776215E-2
6.920585060E-1,1.027556062E-1,1.425551474E-1,7.037353516E-2
6.970789220E-1,1.721360087E-1,1.082979441E-1,6.434440613E-2
7.020993390E-1,2.265542150E-1,5.826991796E-2,1.000404358E-1
7.071197560E-1,2.493681312E-1,-2.342295647E-2,1.962451935E-1
7.121401720E-1,2.060401440E-1,-3.554707766E-2,2.229490280E-1
7.171605890E-1,2.451118827E-1,2.485513687E-5,1.794071198E-1
7.221799640E-1,2.941887975E-1,8.790099621E-2,7.082462311E-2
7.271989220E-1,2.925019860E-1,2.040196955E-1,5.455112457E-2
7.322178810E-1,1.306558251E-1,2.829031944E-1,-1.630783081E-2
7.372368390E-1,-2.097510695E-1,3.120590746E-1,-1.675662994E-1
7.422557970E-1,-3.211882710E-1,2.899256945E-1,-2.750310898E-1
7.472747560E-1,-4.460943341E-1,2.206366956E-1,-3.557100296E-1
7.522937140E-1,-5.775867105E-1,1.391975880E-1,-3.146867752E-1
7.573126720E-1,-6.979832649E-1,-3.720605373E-2,-2.253026962E-1
7.623316310E-1,-7.538465261E-1,-1.995119452E-1,-2.067594528E-1
7.673505890E-1,-7.634599209E-1,-2.489945292E-1,-2.026844025E-1
7.723695470E-1,-7.548846006E-1,-2.168999314E-1,-1.567373276E-1
7.773885060E-1,-7.551653981E-1,-1.095969677E-1,-1.301422119E-1
7.824074640E-1,-6.514785290E-1,-2.527117729E-2,-1.025743484E-1
7.874264220E-1,-5.029888749E-1,7.697403431E-3,-8.830451965E-2
7.924453810E-1,-3.572837114E-1,1.225084066E-2,-5.276966095E-2
7.974643390E-1,-2.190402746E-1,2.888298035E-2,-4.956626892E-2
8.024832970E-1,-1.395733953E-1,1.043704748E-1,2.844619751E-2
8.075022560E-1,-7.868647575E-3,1.028336287E-1,-3.778076172E-2
8.125212140E-1,1.477327347E-1,8.195054531E-2,-7.021903992E-2
8.175401720E-1,3.321105242E-1,1.045771837E-1,-3.007793427E-2
8.225591310E-1,4.943618476E-1,1.404342055E-1,-2.846240997E-2
8.275780890E-1,6.263607740E-1,1.856757402E-1,-3.300952911E-2
8.325970470E-1,6.835073233E-1,2.499375343E-1,-6.023979187E-2
8.376160060E-1,7.402148247E-1,2.324298024E-1,-1.502790451E-1
8.426349640E-1,7.082149982E-1,1.639259458E-1,-1.648883820E-1
8.476539220E-1,7.269629240E-1,1.234079003E-1,-8.093929291E-2
8.526728810E-1,8.200560808E-1,1.558832526E-1,3.906250000E-2
8.576918390E-1,9.294493198E-1,2.298958302E-1,1.426553726E-1
8.627107970E-1,1.085151553E0,2.710026503E-1,2.139081955E-1
8.677297560E-1,1.279685020E0,3.085169792E-1,2.609777451E-1
8.727487140E-1,1.423922300E0,3.067513108E-1,3.280744553E-1
8.777676720E-1,1.509461045E0,2.610153556E-1,4.008522034E-1
8.827866310E-1,1.614149094E0,1.547435522E-1,4.948215485E-1
8.878057970E-1,1.468096852E0,1.087188721E-2,5.968608856E-1
8.928249640E-1,8.784582615E-1,-2.765573263E-1,6.105241776E-1
8.978441310E-1,3.812561035E-1,-5.104888678E-1,7.136507034E-1
9.028632970E-1,7.883465290E-2,-5.714727640E-1,7.830295563E-1
9.078824640E-1,-1.997044683E-1,-5.108385086E-1,8.044805527E-1
9.129016310E-1,-5.274562836E-1,-3.974564075E-1,7.555913925E-1
9.179207970E-1,-9.066827893E-1,-2.947103977E-1,6.367406845E-1
9.229399640E-1,-1.196687698E0,-2.366522551E-1,4.697790146E-1
9.279591310E-1,-1.410029173E0,-2.058076859E-1,2.931232452E-1
9.329782970E-1,-1.471592784E0,-1.991194487E-1,1.532773972E-1
9.379974640E-1,-1.434059381E0,-1.716524363E-1,5.246257782E-2
9.430166310E-1,-1.286733508E0,-1.040079594E-1,-1.189231873E-3
9.480357970E-1,-1.038745522E0,-1.269352436E-2,-3.410148621E-2
9.530549640E-1,-7.066213489E-1,6.088805199E-2,-7.257270813E-2
9.580741310E-1,-3.044821620E-1,9.917652607E-2,-1.130275726E-1
9.630932970E-1,7.999545336E-2,1.025924683E-1,-1.316480637E-1
9.681124640E-1,3.836406469E-1,5.690371990E-2,-9.999561310E-2
9.731348600E-1,6.176681519E-1,-2.716517448E-2,-3.740692139E-2
9.781548080E-1,7.511404753E-1,-1.304439306E-1,7.022094727E-2
9.831739750E-1,7.760254145E-1,-2.118000984E-1,2.273359299E-1
9.881930890E-1,7.038412690E-1,-2.659761906E-1,3.205022812E-1
9.932120470E-1,5.607107878E-1,-3.128407001E-1,3.416843414E-1
9.982310060E-1,4.061214328E-1,-3.051440716E-1,3.127012253E-1
1.003249964E0,2.597514987E-1,-3.097908497E-1,2.612533569E-1
1.008268922E0,8.487200737E-2,-3.017787933E-1,2.505846024E-1
1.013287881E0,-1.585891247E-1,-2.740310431E-1,3.090991974E-1
1.018306839E0,-4.533174038E-1,-1.566066742E-1,3.780813217E-1
1.023325797E0,-6.906850934E-1,-6.182372570E-2,3.991250992E-1
1.028344756E0,-7.678626776E-1,3.322935104E-2,3.962717056E-1
1.033363714E0,-7.824712992E-1,1.334105730E-1,3.803424835E-1
1.038382672E0,-6.997045279E-1,2.137316465E-1,4.144878387E-1
1.043401631E0,-5.536404848E-1,2.823408842E-1,5.055475235E-1
1.048420589E0,-3.947222829E-1,3.138589859E-1,5.721664429E-1
1.053439547E0,-1.988717318E-1,3.727465868E-1,5.882682800E-1
1.058458506E0,-1.759403944E-2,4.408493638E-1,5.850324631E-1
1.063477464E0,1.395012736E-1,4.728730321E-1,5.768308640E-1
1.068496422E0,2.771793604E-1,5.057722330E-1,5.338659286E-1
1.073515381E0,3.789728880E-1,5.109746456E-1,4.670314789E-1
1.078534339E0,4.305315316E-1,4.853902459E-1,3.681249619E-1
1.083553297E0,4.771506488E-1,4.659617543E-1,2.968282700E-1
1.088572256E0,4.982550144E-1,3.955621719E-1,2.279672623E-1
1.093591214E0,5.201139450E-1,2.794244289E-1,1.639404297E-1
1.098610172E0,5.261238813E-1,1.549069881E-1,1.357460022E-1
1.103629131E0,5.057893991E-1,6.624817848E-3,1.051139832E-1
1.108648089E0,4.841968417E-1,-1.604346037E-1,6.610965729E-2
1.113667047E0,3.389050066E-1,-3.257997036E-1,2.239322662E-2
1.118686006E0,8.483737707E-2,-4.759309292E-1,-2.130346298E-1
1.123704964E0,-2.825838327E-2,-4.491273165E-1,-5.779361725E-2
1.128723922E0,-1.260982156E-1,-3.692474365E-1,-6.186580658E-2
1.133742881E0,-1.858893633E-1,-2.461470366E-1,-5.411434174E-2
1.138761839E0,-2.082279921E-1,-1.133234501E-1,-4.166698456E-2
1.143780797E0,-1.950717568E-1,1.611948013E-3,-5.670356750E-2
1.148799808E0,-2.339736819E-1,1.027678251E-1,-9.549331665E-2
1.153818975E0,-2.292310596E-1,2.477077246E-1,-3.640365601E-2
1.158838141E0,-1.329581738E-1,4.243661165E-1,5.214691162E-2
1.163857308E0,-2.494388819E-2,5.459544063E-1,1.473913193E-1
1.168876475E0,1.332187057E-1,6.071786284E-1,1.886100769E-1
1.173895641E0,3.259028792E-1,6.216965914E-1,2.643852234E-1
1.178914808E0,5.330467224E-1,6.101985574E-1,3.556480408E-1
1.183933975E0,6.833525896E-1,6.145061255E-1,4.230947495E-1
1.188953141E0,8.180931807E-1,5.951998830E-1,5.348005295E-1
1.193972308E0,8.785635233E-1,5.759044886E-1,6.654691696E-1
1.198991475E0,8.930290341E-1,5.180014968E-1,8.089418411E-1
1.204010641E0,8.207608461E-1,4.245405197E-1,8.851718903E-1
1.209029808E0,6.932189465E-1,3.068779707E-1,9.909000397E-1
1.214048975E0,5.666268468E-1,2.111375332E-1,1.019833565E0
1.219068141E0,4.658863544E-1,1.023068428E-1,9.018917084E-1
1.224087308E0,3.807301521E-1,2.931487560E-2,7.222795486E-1
1.229106475E0,2.997403443E-1,-3.641009331E-2,4.800405502E-1
1.234125641E0,2.200530171E-1,-7.918322086E-2,2.541103363E-1
1.239144808E0,1.947917342E-1,-9.515392780E-2,6.709003448E-2
1.244163975E0,1.747108996E-1,-1.186224222E-1,-9.544563293E-2
1.249183141E0,1.572943330E-1,-1.171147823E-1,-2.109155655E-1
1.254202308E0,1.532282829E-1,-1.000010967E-1,-3.307409286E-1
1.259221475E0,1.137031913E-1,-7.767915726E-2,-4.345731735E-1
1.264240641E0,4.754638672E-2,-6.891489029E-3,-4.914016724E-1
1.269259808E0,-3.102600574E-3,4.662311077E-2,-5.109281540E-1
1.274278975E0,-5.480831861E-2,1.009646654E-1,-4.527301788E-1
1.279298141E0,-7.874774933E-2,1.214452982E-1,-3.624219894E-1
1.284317308E0,-5.599033833E-2,1.426157951E-1,-2.926206589E-1
1.289336475E0,1.102983952E-2,1.184208393E-1,-1.768951416E-1
1.294355641E0,1.099355817E-1,8.175361156E-2,-7.154750824E-2
1.299374808E0,2.322272956E-1,5.496883392E-2,-2.717971802E-4
1.304393975E0,3.222609460E-1,5.566608906E-2,2.415943146E-2
1.309413141E0,3.807796538E-1,7.186043262E-2,6.265163422E-2
1.314432308E0,4.086543322E-1,7.616519928E-2,3.552246094E-2
1.319451475E0,3.974750340E-1,7.355833054E-2,4.303646088E-2
1.324470641E0,3.692665994E-1,7.106578350E-2,5.166244507E-2
1.329489808E0,3.258311152E-1,4.368531704E-2,4.241466522E-2
1.334508975E0,2.806570530E-1,2.345764637E-2,3.442001343E-2
1.339528141E0,2.362272441E-1,-3.869414330E-3,1.818466187E-2
1.344547308E0,1.581897140E-1,-2.049565315E-2,-2.667427063E-3
1.349566475E0,6.710499525E-2,-4.904925823E-2,-6.723403931E-3
1.354585641E0,1.074790955E-3,-7.395756245E-2,1.137733459E-3
1.359604808E0,-6.043267250E-2,-4.891037941E-2,1.843929291E-2
1.364623975E0,-8.321583271E-2,-7.765531540E-3,3.674793243E-2
1.369643141E0,-6.767010689E-2,5.052411556E-2,9.878730774E-2
1.374662308E0,-4.640442133E-2,8.070886135E-2,1.400756836E-1
1.379681475E0,-2.423000336E-2,1.303242445E-1,1.833076477E-1
1.384700641E0,8.397519588E-3,1.614258289E-1,2.130718231E-1
1.389719808E0,4.937446117E-2,1.670202017E-1,2.306833267E-1
1.394738975E0,5.944377184E-2,1.699568033E-1,2.303209305E-1
1.399758141E0,7.568565011E-2,1.429811716E-1,2.204504013E-1
1.404777308E0,8.726227283E-2,1.422061920E-1,2.047166824E-1
1.409796475E0,3.342002630E-2,1.413788795E-1,1.641731262E-1
1.414815641E0,1.672464609E-2,1.549216509E-1,1.584072113E-1
1.419834808E0,1.753813028E-2,1.716226339E-1,1.325063705E-1
1.424853975E0,3.491878510E-3,1.308196783E-1,2.251052856E-2
1.429873141E0,1.699912548E-2,8.429086208E-2,-6.046390533E-2
1.434892308E0,5.984830856E-2,6.076157093E-2,-6.677627563E-2
1.439911475E0,7.323122025E-2,5.044686794E-2,-2.559375763E-2
1.444930641E0,7.366591692E-2,8.167135715E-2,-2.636909485E-3
1.449949808E0,3.888285160E-2,1.066579819E-1,-4.640388489E-2
1.454968975E0,7.907027006E-2,1.028439999E-1,-6.608676910E-2
1.459988141E0,1.723189056E-1,1.108845472E-1,-7.611751556E-2
1.465007308E0,1.959044635E-1,1.083585024E-1,-8.722400665E-2
1.470026475E0,2.026381493E-1,9.413075447E-2,-6.972694397E-2
1.475045641E0,1.569132805E-1,9.444618225E-2,-6.541442871E-2
1.480064808E0,1.065898538E-1,5.456399918E-2,-5.044078827E-2
1.485083975E0,9.194922447E-2,2.569174767E-2,-4.273605347E-2
1.490103141E0,6.152760983E-2,2.311575413E-2,-4.819107056E-2
1.495122308E0,5.941402912E-2,-7.903933525E-3,-2.513313293E-2
1.500141475E0,5.373859406E-2,-1.856231689E-2,1.282691956E-3
1.505160641E0,3.633868694E-2,-3.886198997E-2,1.913547516E-2
1.510179808E0,3.107541800E-2,-3.418350220E-2,7.481765747E-2
1.515198975E0,-2.349019051E-2,4.118669033E-2,1.074285507E-1
1.520218141E0,1.899242401E-3,1.015377045E-2,5.546188354E-2
1.525237308E0,1.020149291E-1,9.238243103E-3,4.432678223E-2
1.530256475E0,2.179805636E-1,3.468298912E-2,1.552104950E-2
1.535275641E0,2.472229600E-1,8.409202099E-2,-2.961063385E-2
1.540294808E0,2.286600173E-1,1.004710197E-1,-6.833362579E-2
1.545313975E0,2.117553055E-1,1.362780333E-1,-4.845333099E-2
1.550333141E0,1.969227791E-1,1.742306948E-1,-1.912021637E-2
1.555352308E0,2.113657892E-1,1.988852024E-1,-3.620815277E-2
1.560371475E0,1.914216280E-1,1.934623718E-1,3.355216980E-2
1.565390641E0,1.637695730E-1,1.993876696E-1,1.181669235E-1
1.570409808E0,1.534020603E-1,1.568684578E-1,1.925306320E-1
1.575428975E0,1.910645664E-1,8.773934841E-2,2.222461700E-1
1.580448141E0,1.830517054E-1,-4.957437515E-3,2.207002640E-1
1.585467308E0,1.336680353E-1,-3.627741337E-2,1.905536652E-1
1.590486475E0,9.181410074E-2,-5.397224426E-2,1.807460785E-1
1.595505641E0,4.513889551E-2,-5.109679699E-2,1.151666641E-1
1.600524808E0,1.809668541E-2,-4.817676544E-2,6.789588928E-2
1.605543975E0,2.068665624E-1,9.131467342E-2,3.934230804E-1
1.610563141E0,2.759907842E-1,1.640762091E-1,5.556211472E-1
1.615582308E0,1.045824885E-1,3.869915009E-2,1.266336441E-1
1.620601475E0,1.049744785E-1,-3.712439537E-2,-8.045196533E-3
1.625620641E0,1.288350224E-1,-6.762278080E-2,4.763031006E-2
1.630639808E0,8.523771167E-2,-5.307722092E-2,7.746505737E-2
1.635658975E0,2.198970318E-2,-6.221270561E-2,2.116966248E-2
1.640678141E0,-3.018894792E-2,-3.927373886E-2,-6.017780304E-2
1.645697308E0,-5.533966422E-2,-1.613712311E-2,-1.369543076E-1
1.650716475E0,-4.469719529E-2,1.575946808E-3,-1.643695831E-1
1.655735641E0,-2.221822739E-3,6.055831909E-5,-1.679534912E-1
1.660754808E0,4.436919093E-2,8.731603622E-3,-1.194887161E-1
1.665773975E0,8.116650581E-2,2.612948418E-3,-1.059818268E-1
1.670793141E0,9.920138121E-2,5.798935890E-3,-7.004070282E-2
1.675812308E0,1.255628169E-1,9.060740471E-3,-5.093383789E-2
1.680831475E0,1.566605866E-1,7.949590683E-3,-5.797100067E-2
1.685850641E0,1.443600357E-1,5.026280880E-2,-6.243038177E-2
1.690871787E0,1.089547575E-1,8.894670010E-2,-2.285957336E-2
1.695888870E0,7.391950488E-2,1.202296019E-1,2.147674561E-3
1.700905954E0,3.442671895E-2,1.582289934E-1,1.980113983E-2
1.705923037E0,2.710837126E-2,1.539852619E-1,-2.211475372E-2
1.710940329E0,1.131415367E-2,1.697976589E-1,1.819419861E-2
1.715957829E0,-2.702212334E-2,1.709975004E-1,-4.791259766E-3
1.720975537E0,1.433220506E-2,1.735883951E-1,-4.892921448E-2
1.725993662E0,4.323244095E-2,1.742660999E-1,-7.839107513E-2
1.731012204E0,1.960104704E-2,2.215156555E-1,-3.627967834E-2
1.736031162E0,6.382587552E-2,1.830024719E-1,-4.905128479E-2
1.741050537E0,1.042382717E-1,1.452082396E-1,-1.198177338E-1
1.746070120E0,1.223175228E-1,8.578157425E-2,-1.923093796E-1
1.751089912E0,1.190216541E-1,3.954553604E-2,-2.130794525E-1
1.756109912E0,1.160750091E-1,1.582264900E-3,-2.324171066E-1
1.761130120E0,1.077831686E-1,-2.098548412E-2,-2.325038910E-1
1.766150537E0,7.676309347E-2,-3.440451622E-2,-2.087612152E-1
1.771170954E0,3.539991379E-2,-5.786645412E-2,-1.780071259E-1
1.776191370E0,4.104882479E-3,-6.420350075E-2,-1.284570694E-1
1.781211787E0,-2.087399364E-2,-6.067991257E-2,-6.620502472E-2
1.786232204E0,-1.698330045E-2,-4.649007320E-2,7.411956787E-3
1.791252204E0,8.263498545E-3,-5.396103859E-2,7.326984406E-2
1.796271370E0,2.624496818E-2,-5.693125725E-2,1.420965195E-1
1.801290537E0,6.901678443E-2,-5.920672417E-2,1.794061661E-1
1.806309704E0,1.208465099E-1,-4.425823689E-2,2.151222229E-1
1.811328870E0,1.388418376E-1,-4.542493820E-2,2.029609680E-1
1.816347829E0,1.410390735E-1,-4.249823093E-2,2.062196732E-1
1.821366787E0,1.692148447E-1,-3.181600571E-2,1.369466782E-1
1.826385745E0,1.697898507E-1,-1.309847832E-2,4.447841644E-2
1.831404704E0,1.583938003E-1,4.114198685E-2,-4.478454590E-3
1.836423662E0,1.148532331E-1,9.415638447E-2,-6.009387970E-2
1.841442620E0,4.797524214E-2,1.211590767E-1,-9.379100800E-2
1.846461579E0,-2.299144864E-2,1.554973125E-1,-1.022033691E-1
1.851480537E0,-6.254979968E-2,1.734951735E-1,-1.045236588E-1
1.856499495E0,-4.714307189E-2,1.786239147E-1,-8.896160126E-2
1.861518454E0,1.223358512E-2,1.543130875E-1,-8.891105652E-2
1.866537412E0,8.074462414E-2,1.245723963E-1,-5.912685394E-2
1.871556370E0,1.428714693E-1,1.213731766E-1,-5.329704285E-2
1.876575329E0,1.769886613E-1,9.817063808E-2,-2.731990814E-2
1.881594287E0,1.716311872E-1,5.512928963E-2,-2.527904510E-2
1.886613245E0,1.696180999E-1,4.698443413E-2,-4.253387451E-3
1.891632204E0,1.296619773E-1,3.312802315E-2,9.501457214E-3
1.896651162E0,9.357413650E-2,1.933431625E-2,-2.983093262E-3
1.901670120E0,4.352992773E-2,4.502296448E-3,-1.110076904E-3
1.906689079E0,-4.931360483E-3,6.451487541E-3,2.093601227E-2
1.911708037E0,-9.178221226E-3,1.314592361E-2,9.556770325E-3
1.916726995E0,-2.806335688E-3,1.622867584E-2,4.813003540E-2
1.921745954E0,-5.924254656E-3,1.919078827E-2,5.669116974E-2
1.926764912E0,-1.128891110E-2,7.803559303E-3,7.586097717E-2
1.931783870E0,2.561956644E-3,1.163434982E-2,7.702350616E-2
1.936802829E0,2.612787485E-2,-8.461833000E-3,6.511211395E-2
1.941821787E0,6.507816911E-2,-2.159035206E-2,7.462310791E-2
1.946840745E0,1.061542034E-1,-4.320645332E-2,5.552291870E-2
1.951859704E0,1.470325291E-1,-3.884911537E-2,7.096290588E-2
1.956878662E0,1.697373986E-1,-4.800939560E-2,6.721115112E-2
1.961897620E0,2.139015496E-1,-1.025291681E-1,7.650947571E-2
1.966916579E0,2.164776325E-1,-1.024876833E-1,9.041023254E-2
1.971935745E0,1.598699391E-1,-1.018557549E-1,9.817314148E-2
1.976954912E0,7.882189751E-2,-5.421876907E-2,9.867095947E-2
1.981974079E0,-3.522130847E-2,-5.006432533E-3,1.240072250E-1
1.986993245E0,-9.904083610E-2,2.574515343E-2,1.241340637E-1
1.992012412E0,-7.051187754E-2,5.351185799E-2,1.134815216E-1
1.997031579E0,2.532839775E-3,5.939686298E-2,1.147260666E-1
2.002050745E0,7.976108789E-2,6.142008305E-2,7.674503326E-2
2.007069912E0,1.172191203E-1,8.460831642E-2,3.786563873E-2
2.012089079E0,1.451417804E-1,7.557559013E-2,3.137969971E-2
2.017108245E0,1.730698943E-1,6.780540943E-2,2.495861053E-2
2.022127412E0,1.870801747E-1,4.554378986E-2,3.162670135E-2
2.027146579E0,1.671950817E-1,3.992426395E-2,5.248737335E-2
2.032165745E0,1.310820282E-1,4.145181179E-2,6.605911255E-2
2.037184912E0,1.022269726E-1,3.675305843E-2,7.946491241E-2
2.042204079E0,5.885800719E-2,2.605497837E-2,8.559703827E-2
2.047223245E0,3.074783087E-2,1.638150215E-2,5.837345123E-2
2.052242412E0,1.101717353E-2,1.734685898E-2,-7.028579712E-4
2.057261579E0,-1.996937394E-2,4.502344131E-2,-1.042795181E-1
2.062280745E0,1.300245523E-3,8.276772499E-2,-1.522111893E-1
2.067299912E0,2.683883905E-2,1.529614925E-1,-1.414184570E-1
2.072319079E0,-1.047819853E-2,1.900510788E-1,-1.341447830E-1
2.077338245E0,-3.108793497E-2,1.371543407E-1,-4.375648499E-2
2.082357412E0,-1.955613494E-2,6.913435459E-2,6.484603882E-2
2.087376579E0,-6.661146879E-3,-1.682722569E-2,2.377367020E-1
2.092395745E0,2.332833409E-2,-8.701062202E-2,3.780984879E-1
2.097414912E0,5.804526806E-2,-1.181588173E-1,4.481410980E-1
2.102434079E0,8.864009380E-2,-1.378749609E-1,4.341869354E-1
2.107453245E0,1.313497424E-1,-1.412369013E-1,3.927555084E-1
2.112472412E0,1.994884908E-1,-1.389938593E-1,3.407297134E-1
2.117491579E0,2.339737713E-1,-1.059082747E-1,2.711572647E-1
2.122510745E0,2.817128897E-1,-5.489981174E-2,1.593341827E-1
2.127529912E0,2.497364283E-1,5.230307579E-3,-1.919364929E-2
2.132549079E0,9.271472692E-2,7.677960396E-2,-2.637281418E-1
2.137568245E0,-1.849442720E-2,1.678720713E-1,-4.810142517E-1
2.142587412E0,-5.101859570E-2,2.219541073E-1,-5.536651611E-1
2.147606579E0,-8.747792244E-2,2.378747463E-1,-4.971227646E-1
2.152625745E0,-8.293437958E-2,1.773600578E-1,-3.374414444E-1
2.157644912E0,-3.833726048E-2,1.065577269E-1,-1.242742538E-1
2.162664079E0,6.702244282E-3,2.584135532E-2,8.243465424E-2
2.167683245E0,1.119437814E-2,-4.392528534E-2,3.016138077E-1
2.172702412E0,-3.818371892E-2,-1.181238890E-1,5.567121506E-1
2.177721579E0,-1.259393990E-1,-1.714513302E-1,7.178840637E-1
2.182740745E0,-1.949630082E-1,-2.269296646E-1,7.573690414E-1
2.187759912E0,-2.287953496E-1,-2.237756252E-1,6.857156754E-1
2.192779079E0,-2.608543932E-1,-1.512962580E-1,5.965328217E-1
2.197798245E0,-2.089182436E-1,-6.784152985E-2,4.283695221E-1
2.202817412E0,-1.050048769E-1,7.027757168E-2,2.401962280E-1
2.207836579E0,5.875462294E-2,1.815983057E-1,4.062366486E-2
2.212855745E0,2.086794525E-1,2.597681284E-1,-1.404743195E-1
2.217874912E0,3.275596201E-1,3.282541037E-1,-3.138799667E-1
2.222894079E0,3.833947778E-1,3.672703505E-1,-3.395442963E-1
2.227913245E0,3.684125543E-1,3.636194468E-1,-2.828607559E-1
2.232932412E0,3.167840242E-1,3.197171688E-1,-1.018133163E-1
2.237951579E0,2.863968611E-1,1.989809275E-1,6.006431580E-2
2.242970745E0,2.642185092E-1,9.085118771E-2,2.455930710E-1
2.247989912E0,2.868722677E-1,6.649649143E-2,4.034862518E-1
2.253009079E0,2.656504214E-1,2.182364464E-2,5.754489899E-1
2.258028245E0,1.231855154E-1,-6.381893158E-2,7.554254532E-1
2.263047412E0,-1.774454117E-2,-1.836279631E-1,8.745193481E-1
2.268066579E0,-9.448215365E-2,-2.461277246E-1,9.831361771E-1
2.273085745E0,-1.103508472E-1,-2.697181702E-1,1.030314445E0
2.278104912E0,-1.504080892E-1,-2.725548744E-1,1.099683762E0
2.283124079E0,-2.502731979E-1,-2.764472961E-1,1.277667046E0
2.288143245E0,-4.398518205E-1,-2.607021332E-1,1.537121773E0
2.293162412E0,-6.799864769E-1,-2.105810642E-1,1.790614128E0
2.298181579E0,-8.810032606E-1,-1.993305683E-1,2.048775673E0
2.303200745E0,-1.002564669E0,-2.118426561E-1,2.293654442E0
2.308219912E0,-1.056856871E0,-2.354509830E-1,2.416051865E0
2.313239079E0,-9.921144247E-1,-2.582786083E-1,2.382527351E0
2.318258245E0,-7.940566540E-1,-2.087403536E-1,2.222936630E0
2.323277412E0,-4.779949188E-1,-1.355558634E-1,1.978793144E0
2.328296579E0,-8.361381292E-2,-5.830335617E-2,1.723362923E0
2.333315745E0,3.221058846E-1,5.853891373E-3,1.416490555E0
2.338334912E0,6.482091546E-1,5.571436882E-2,1.112194061E0
2.343354079E0,9.308640957E-1,9.005928040E-2,7.820835114E-1
2.348373245E0,1.147953033E0,1.404826641E-1,5.151453018E-1
2.353392412E0,1.326085210E0,2.085461617E-1,2.957038879E-1
2.358411579E0,1.435624123E0,2.256832719E-1,1.392488480E-1
2.363430745E0,1.379204154E0,2.361752987E-1,2.652645111E-2
2.368449912E0,1.181749344E0,2.126261592E-1,-5.091285706E-2
2.373469079E0,9.555177093E-1,2.519482374E-1,-7.520294189E-2
2.378488245E0,6.881711483E-1,3.203121424E-1,-2.974605560E-2
2.383507412E0,4.239016473E-1,3.683426380E-1,5.778980255E-2
2.388526579E0,1.527260840E-1,4.005927444E-1,1.932449341E-1
2.393545745E0,-6.026327610E-2,4.275988340E-1,2.773170471E-1
2.398564912E0,-2.321297824E-1,3.942728639E-1,3.519010544E-1
2.403584079E0,-4.090487957E-1,3.315293789E-1,5.221395493E-1
2.408603245E0,-5.636577606E-1,2.507468462E-1,7.161550522E-1
2.413622412E0,-6.817651987E-1,1.403551698E-1,9.756946564E-1
2.418641579E0,-6.799306273E-1,1.401561499E-2,1.236065865E0
2.423660745E0,-6.006258726E-1,-1.205061674E-1,1.407562256E0
2.428679912E0,-4.438933730E-1,-2.623292208E-1,1.471117020E0
2.433699079E0,-2.643040419E-1,-3.294606805E-1,1.459067345E0
2.438718245E0,-1.286198497E-1,-3.784469962E-1,1.391780853E0
2.443737412E0,-4.434961081E-2,-3.665340543E-1,1.238255501E0
2.448756579E0,1.512265205E-2,-3.641322851E-1,1.020192146E0
2.453775745E0,1.185880303E-1,-3.602278829E-1,8.393278122E-1
2.458794912E0,1.828569174E-1,-3.840562105E-1,7.339000702E-1
2.463814079E0,2.207555175E-1,-4.136456847E-1,6.691999435E-1
2.468833245E0,2.104547918E-1,-3.808897734E-1,6.296663284E-1
2.473852412E0,1.525825858E-1,-3.074012399E-1,6.427717209E-1
2.478871579E0,6.302934885E-2,-1.619552970E-1,6.272153854E-1
2.483890745E0,-4.983663559E-2,-2.564090490E-2,6.093606949E-1
2.488909912E0,-1.756039262E-1,9.835296869E-2,6.824026108E-1
2.493929079E0,-2.800748348E-1,1.733649373E-1,7.613258362E-1
2.498948245E0,-2.618853450E-1,2.007567585E-1,7.863788605E-1
2.503967412E0,-1.693744659E-1,2.022670507E-1,7.934904099E-1
2.508986579E0,-6.882780790E-2,1.625755727E-1,7.528028488E-1
2.514005745E0,3.574275970E-2,1.342613101E-1,7.145442963E-1
2.519024912E0,1.013547182E-1,8.277854323E-2,6.476526260E-1
2.524044079E0,9.979796410E-2,6.665408611E-2,6.477813721E-1
2.529063245E0,3.864246607E-2,3.190204501E-2,7.267484665E-1
2.534082412E0,-7.933264971E-2,4.588037729E-3,7.685174942E-1
2.539101579E0,-1.433332562E-1,-1.319265366E-2,7.313890457E-1
2.544120745E0,-1.649278402E-1,-1.068645716E-2,6.370639801E-1
2.549139912E0,-1.376669407E-1,-1.532515883E-2,5.741100311E-1
2.554159079E0,-9.993630648E-2,-6.417468190E-2,5.783014297E-1
2.559178245E0,-6.145966053E-2,-1.322081387E-1,5.945320129E-1
2.564197204E0,-5.464720726E-2,-2.769894600E-1,5.439052582E-1
2.569216162E0,-3.768277168E-2,-3.649024367E-1,5.519847870E-1
2.574235120E0,1.129984856E-2,-3.394269943E-1,4.597673416E-1
2.579254079E0,8.872020245E-2,-2.963699102E-1,3.499002457E-1
2.584273037E0,1.832462549E-1,-2.464099526E-1,1.662397385E-1
2.589291995E0,2.425966263E-1,-1.758827865E-1,-9.876251221E-3
2.594310954E0,2.934958935E-1,-8.300402761E-2,-2.083740234E-1
2.599329912E0,3.213320971E-1,6.361320615E-3,-3.742675781E-1
2.604348870E0,3.498197198E-1,8.664698154E-2,-5.709600449E-1
2.609367829E0,4.029131234E-1,1.629996598E-1,-7.625446320E-1
2.614386787E0,4.769718051E-1,2.083876431E-1,-9.621772766E-1
2.619405745E0,5.635342598E-1,1.898778975E-1,-1.117282867E0
2.624424704E0,6.585733891E-1,1.316964328E-1,-1.208872795E0
2.629443662E0,7.182466984E-1,5.064067617E-2,-1.262140274E0
2.634462620E0,7.495051622E-1,-6.175319850E-2,-1.316525459E0
2.639481579E0,7.795940638E-1,-1.721382290E-1,-1.296689034E0
2.644500537E0,7.866652012E-1,-2.784928679E-1,-1.217054367E0
2.649519495E0,7.206465602E-1,-3.561816812E-1,-1.102828026E0
2.654538454E0,5.568016768E-1,-3.939746022E-1,-9.875192642E-1
2.659557412E0,3.430010676E-1,-4.162097275E-1,-9.284925461E-1
2.664576370E0,1.110451818E-1,-4.232988358E-1,-8.958120346E-1
2.669595329E0,-1.135847569E-1,-4.225455821E-1,-8.691778183E-1
2.674614287E0,-3.054696321E-1,-4.212637246E-1,-8.450565338E-1
2.679633245E0,-4.534403682E-1,-3.956938386E-1,-8.784570694E-1
2.684652204E0,-5.472346544E-1,-3.922021985E-1,-9.489841461E-1
2.689671162E0,-5.807683468E-1,-3.771800399E-1,-1.060131073E0
2.694690120E0,-5.275201797E-1,-3.599899411E-1,-1.158025742E0
2.699709079E0,-4.027147889E-1,-3.164806664E-1,-1.241460800E0
2.704728037E0,-2.535767555E-1,-2.347162366E-1,-1.312800407E0
2.709746995E0,-8.829897642E-2,-1.563343704E-1,-1.357712746E0
2.714766162E0,8.714419603E-2,-1.063316315E-1,-1.449136734E0
2.719785329E0,2.776162028E-1,-9.958925843E-2,-1.451966286E0
2.724804495E0,4.105789661E-1,-1.383815110E-1,-1.380683899E0
2.729823662E0,5.357019305E-1,-1.916130334E-1,-1.228219986E0
2.734842829E0,5.761765242E-1,-2.404536158E-1,-1.121334076E0
2.739861995E0,5.924096107E-1,-2.563996911E-1,-1.089784622E0
2.744881162E0,6.128883958E-1,-2.846605778E-1,-1.037868500E0
2.749900329E0,6.093169451E-1,-3.380628824E-1,-1.013481140E0
2.754919495E0,5.656117201E-1,-3.783619106E-1,-9.819555283E-1
2.759938662E0,5.282360911E-1,-3.687083125E-1,-9.397325516E-1
2.764957829E0,4.347330034E-1,-3.533690572E-1,-9.071645737E-1
2.769976995E0,2.770866752E-1,-3.228334188E-1,-8.878068924E-1
2.775000172E0,8.450353146E-2,-2.617281973E-1,-8.481502533E-1
2.780019652E0,-1.439266205E-1,-1.797215194E-1,-7.452020645E-1
2.785038610E0,-4.267174602E-1,-7.741050422E-2,-6.184663773E-1
2.790057568E0,-6.864881516E-1,-1.120904088E-2,-6.066179276E-1
2.795076527E0,-8.233897686E-1,1.811476052E-2,-6.091098785E-1
2.800095485E0,-8.622410893E-1,2.031217515E-2,-6.247625351E-1
2.805114443E0,-8.081044555E-1,-2.187430859E-3,-6.272706985E-1
2.810133402E0,-6.676974893E-1,-1.571100950E-2,-6.585159302E-1
2.815152360E0,-4.818410277E-1,-5.693407357E-2,-6.622972488E-1
2.820171318E0,-3.078630567E-1,-4.214867949E-2,-6.840639114E-1
2.825190277E0,-1.595276594E-1,-5.287770927E-2,-6.723661423E-1
2.830209235E0,-2.356803417E-2,-6.746703386E-2,-6.487693787E-1
2.835228193E0,6.308239698E-2,-1.254883409E-1,-6.156730652E-1
2.840247152E0,1.106210947E-1,-1.816467792E-1,-5.897922516E-1
2.845266110E0,1.692233980E-1,-2.053676695E-1,-5.268268585E-1
2.850285068E0,2.684369981E-1,-2.195445746E-1,-5.152196884E-1
2.855304027E0,3.290270269E-1,-2.456199080E-1,-5.537033081E-1
2.860322985E0,3.970701396E-1,-2.103960365E-1,-5.406532288E-1
2.865341943E0,4.334958792E-1,-1.497582644E-1,-5.610494614E-1
2.870360902E0,4.354259372E-1,-6.354099512E-2,-6.005249023E-1
2.875379860E0,4.201044738E-1,5.201585591E-2,-6.339960098E-1
2.880398818E0,3.610759079E-1,1.193358451E-1,-6.160755157E-1
2.885417777E0,2.891881168E-1,1.489229351E-1,-5.851039886E-1
2.890436735E0,2.425018251E-1,1.254762709E-1,-6.797389984E-1
2.895455693E0,2.020659447E-1,1.471345872E-1,-7.085447311E-1
2.900474652E0,1.483079791E-1,1.515014321E-1,-7.863826752E-1
2.905493610E0,9.531158209E-2,1.410769075E-1,-8.940572739E-1
2.910512568E0,7.550472021E-2,1.527050436E-1,-9.466571808E-1
2.915531527E0,6.625050306E-2,1.203144342E-1,-9.908704758E-1
2.920550485E0,6.843328476E-2,9.403907508E-2,-1.066093445E0
2.925569443E0,6.817799807E-2,7.144375145E-2,-1.076642036E0
2.930588558E0,1.110636294E-1,1.035993546E-2,-1.121806145E0
2.935607725E0,1.276519001E-1,-4.233880714E-2,-1.191968918E0
2.940626891E0,1.595353782E-1,-7.362060249E-2,-1.242889404E0
2.945646058E0,1.122074723E-1,-1.943575591E-2,-1.286487579E0
2.950665225E0,9.023979306E-2,6.122396886E-2,-1.339488983E0
2.955684391E0,9.787198901E-2,6.802030653E-2,-1.406685829E0
2.960703558E0,1.119036973E-1,6.103231758E-2,-1.517959595E0
2.965722725E0,1.165725589E-1,5.116227642E-2,-1.581227303E0
2.970741891E0,1.346400380E-1,7.073124498E-2,-1.625250816E0
2.975761058E0,1.827073693E-1,7.437884063E-2,-1.635729790E0
2.980780225E0,2.150299251E-1,1.039098203E-1,-1.642612457E0
2.985799391E0,3.318315744E-1,1.054975837E-1,-1.666231155E0
2.990818558E0,3.886178732E-1,1.018778384E-1,-1.696984291E0
2.995837725E0,3.968449235E-1,1.264269948E-1,-1.715712547E0
3.000856891E0,3.729043603E-1,1.596746594E-1,-1.748692513E0
3.005876058E0,3.767758906E-1,2.098020762E-1,-1.803063393E0
3.010895225E0,3.649067283E-1,2.541294098E-1,-1.870450020E0
3.015918714E0,3.012710810E-1,2.905160189E-1,-1.898254395E0
3.020937672E0,2.250277400E-1,3.310542405E-1,-1.910461426E0
3.025956631E0,1.684559286E-1,3.962786198E-1,-1.963268280E0
3.030975589E0,1.334599853E-1,4.637547433E-1,-1.980139732E0
3.035994547E0,1.528280377E-1,5.447219014E-1,-2.010163307E0
3.041013506E0,1.708615124E-1,6.257311702E-1,-2.006379128E0
3.046032464E0,1.949791908E-1,7.045212388E-1,-1.970674515E0
3.051051422E0,2.721612453E-1,7.242364287E-1,-1.966257095E0
3.056070381E0,4.215197563E-1,6.712208986E-1,-1.959592819E0
3.061089339E0,5.364584327E-1,5.462871194E-1,-1.944717407E0
3.066108297E0,6.385491490E-1,3.736845553E-1,-1.909771919E0
3.071127256E0,7.168764472E-1,2.386945486E-1,-1.857257843E0
3.076146214E0,6.826657057E-1,7.873044163E-2,-1.876302242E0
3.081165172E0,6.113618612E-1,-6.720191240E-2,-1.808386803E0
3.086184131E0,4.759310484E-1,-1.937451363E-1,-1.768207550E0
3.091203089E0,2.834367752E-1,-2.348836213E-1,-1.725888252E0
3.096222047E0,1.107587814E-1,-2.319599986E-1,-1.708787918E0
3.101241006E0,-3.917089105E-2,-1.639599502E-1,-1.710777283E0
3.106259964E0,-1.088781357E-1,-8.823008835E-2,-1.702043533E0
3.111278922E0,-1.578058898E-1,2.879563719E-2,-1.746801376E0
3.116297881E0,-1.529501379E-1,1.135932282E-1,-1.797120094E0
3.121316839E0,-1.197512448E-1,1.963736862E-1,-1.854139805E0
3.126335797E0,-2.379792929E-2,2.572475076E-1,-1.911855698E0
3.131359339E0,1.948954463E-1,1.756189018E-1,-1.969072342E0
3.136377464E0,3.613308966E-1,8.120945841E-2,-2.041260719E0
3.141395589E0,3.248488903E-1,1.626777798E-1,-2.015477180E0
3.146413714E0,3.522295952E-1,1.310670227E-1,-2.021914482E0
3.151431839E0,3.467307687E-1,1.012272537E-1,-2.030630112E0
3.156449964E0,3.997735679E-1,3.627121449E-2,-2.011938572E0
3.161468141E0,4.381725788E-1,-6.115273386E-2,-1.966085434E0
3.166486527E0,4.178802669E-1,-1.198695898E-1,-1.886191845E0
3.171505120E0,3.928960562E-1,-1.367162466E-1,-1.787969589E0
3.176523922E0,3.100054860E-1,-1.076028049E-1,-1.698870659E0
3.181542933E0,2.315894663E-1,-6.137488782E-2,-1.647300720E0
3.186562152E0,1.278119981E-1,-3.411187232E-2,-1.577161789E0
3.191581579E0,4.492431879E-2,1.373702288E-2,-1.506427765E0
3.196601214E0,-3.624880314E-2,1.775515079E-2,-1.438668251E0
3.201621006E0,-8.616644144E-2,-1.456402242E-2,-1.339437485E0
3.206640797E0,-1.265143752E-1,-5.205826461E-2,-1.214941025E0
3.211660589E0,-1.408424973E-1,-6.861591339E-2,-1.106944084E0
3.216680381E0,-1.746980548E-1,-4.538658261E-2,-1.050939560E0
3.221700172E0,-1.856549382E-1,-1.780092716E-4,-1.042961121E0
3.226719964E0,-1.859503984E-1,8.712566644E-2,-1.058877945E0
3.231739756E0,-1.601001024E-1,1.534203738E-1,-1.056932449E0
3.236759547E0,-9.426617622E-2,1.648456156E-1,-1.036096573E0
3.241779235E0,4.437971115E-2,1.160613671E-1,-1.015527725E0
3.246798506E0,1.990293562E-1,3.112535179E-2,-9.417514801E-1
3.251817464E0,5.274584889E-1,-2.909618020E-1,-8.507471085E-1
3.256836422E0,5.532218218E-1,-3.086732030E-1,-7.330980301E-1
3.261855381E0,5.653650761E-1,-3.400460482E-1,-6.518402100E-1
3.266874339E0,4.802739620E-1,-3.816614449E-1,-5.995044708E-1
3.271893297E0,3.129950762E-1,-3.160209358E-1,-5.354785919E-1
3.276912256E0,1.570678949E-1,-2.057481110E-1,-4.777107239E-1
3.281931214E0,1.371916533E-1,-1.116205975E-1,-4.060201645E-1
3.286950172E0,2.372144461E-1,-6.981711835E-2,-3.739795685E-1
3.291969131E0,4.341534972E-1,-7.933005691E-2,-3.171873093E-1
3.296988089E0,6.305668950E-1,-9.981110692E-2,-3.071050644E-1
3.302007047E0,8.018839359E-1,-7.809375226E-2,-2.983064651E-1
3.307026006E0,9.016085267E-1,-4.030448198E-2,-2.338418961E-1
3.312044964E0,9.614049196E-1,-1.694194600E-2,-1.913328171E-1
3.317063922E0,1.007977128E0,-3.877179325E-2,-8.273792267E-2
3.322082881E0,9.489744902E-1,-1.494360268E-1,1.151380539E-1
3.327101839E0,7.162125111E-1,-2.596326768E-1,5.071811676E-1
3.332120797E0,3.584501743E-1,-3.000491858E-1,9.766073227E-1
3.337139756E0,-1.753883362E-1,-3.693346381E-1,1.216509819E0
3.342158714E0,-6.323277950E-1,-4.485117793E-1,1.390239716E0
3.347177672E0,-9.875662923E-1,-5.234582424E-1,1.464460373E0
3.352196631E0,-1.271777868E0,-5.054077506E-1,1.477659225E0
3.357215589E0,-1.431783319E0,-4.160083532E-1,1.309280396E0
3.362234547E0,-1.489956141E0,-3.610029817E-1,1.086340904E0
3.367253506E0,-1.507001996E0,-2.990651727E-1,9.129562378E-1
3.372272464E0,-1.472812176E0,-2.296892405E-1,7.341241837E-1
3.377291422E0,-1.351119280E0,-1.513751149E-1,5.929374695E-1
3.382310381E0,-1.129676342E0,-8.641780913E-2,4.583063126E-1
3.387329339E0,-8.482834697E-1,-1.045532525E-2,3.720417023E-1
3.392348297E0,-5.759814978E-1,6.245812774E-2,2.993240356E-1
3.397367308E0,-3.480217457E-1,1.230998635E-1,2.436513901E-1
3.402386475E0,-1.540660858E-1,1.750523448E-1,2.312450409E-1
3.407405641E0,2.946352959E-2,2.158628404E-1,2.225551605E-1
3.412424808E0,1.801525354E-1,2.252136469E-1,2.581052780E-1
3.417443975E0,2.461725473E-1,1.888182759E-1,3.198337555E-1
3.422463141E0,3.347120285E-1,9.023827314E-2,3.586130142E-1
3.427482308E0,4.004412889E-1,-4.017138481E-2,3.672971725E-1
3.432501475E0,4.074533582E-1,-1.495568603E-1,4.331655502E-1
3.437520641E0,3.189098835E-1,-1.426514834E-1,5.071477890E-1
3.442539808E0,1.710786819E-1,-2.115853131E-2,5.809106827E-1
3.447558975E0,2.250909805E-2,1.322128475E-1,6.006507874E-1
3.452578141E0,-1.343336105E-1,2.705760002E-1,5.759658813E-1
3.457597308E0,-2.426496744E-1,3.845388591E-1,6.191968918E-1
3.462616475E0,-3.600593805E-1,4.453533292E-1,6.656713486E-1
3.467635641E0,-4.386043549E-1,4.025980234E-1,7.297534943E-1
3.472654808E0,-4.585226774E-1,3.039682508E-1,8.282623291E-1
3.477673975E0,-4.594428539E-1,2.087426782E-1,9.003658295E-1
3.482693141E0,-4.253751040E-1,1.154685766E-1,8.911952972E-1
3.487712308E0,-3.005006313E-1,1.454500109E-2,8.665714264E-1
3.492731475E0,-1.278705597E-1,-6.641764194E-2,8.646059036E-1
3.497750641E0,-7.941961288E-3,-1.393930316E-1,9.496326447E-1
3.502769808E0,-1.964378357E-2,-1.820056587E-1,1.111945152E0
3.507788975E0,-1.466383934E-1,-2.354906052E-1,1.275022507E0
3.512808141E0,-2.818843126E-1,-3.049480319E-1,1.362430573E0
3.517827308E0,-3.323994875E-1,-4.072780907E-1,1.438779831E0
3.522846475E0,-3.727743626E-1,-4.610873163E-1,1.505217552E0
3.527865641E0,-3.940283060E-1,-4.451363385E-1,1.571224213E0
3.532884808E0,-3.750652075E-1,-3.749646246E-1,1.620000839E0
3.537903975E0,-3.531823158E-1,-2.467075884E-1,1.620465279E0
3.542923141E0,-2.693964243E-1,-8.534428477E-2,1.583517075E0
3.547942308E0,-1.685926914E-1,7.228673995E-2,1.486606598E0
3.552961475E0,-5.836367607E-3,1.821042597E-1,1.392104149E0
3.557980641E0,1.850039959E-1,2.433432043E-1,1.267878532E0
3.562999808E0,3.679599762E-1,2.656132877E-1,1.154792786E0
3.568018975E0,5.426218510E-1,2.360394895E-1,1.038605690E0
3.573038141E0,6.472406387E-1,1.860143542E-1,1.013829231E0
3.578057308E0,6.555348635E-1,1.106612086E-1,1.061191559E0
3.583076475E0,5.327172279E-1,7.164716721E-2,1.223570824E0
3.588095641E0,3.493850231E-1,6.477406621E-2,1.383614540E0
3.593114808E0,1.519635916E-1,1.040580273E-1,1.442049980E0
3.598133975E0,2.618718147E-2,8.637362719E-2,1.483827591E0
3.603153141E0,-4.353761673E-2,5.138909817E-2,1.440834999E0
3.608172308E0,-4.985380173E-2,-1.896440983E-2,1.427979469E0
3.613191475E0,-6.329357624E-2,-7.906943560E-2,1.368723869E0
3.618210641E0,-5.875968933E-2,-7.163053751E-2,1.306158066E0
3.623229808E0,-4.143738747E-2,-6.842422485E-2,1.283268929E0
3.628248975E0,-2.623772621E-2,-1.546162367E-2,1.258085251E0
3.633268141E0,1.488268375E-2,5.963611603E-2,1.261591911E0
3.638287308E0,4.414606094E-2,1.032671928E-1,1.257796288E0
3.643306475E0,3.007256985E-2,1.371364594E-1,1.232311249E0
3.648325641E0,2.157199383E-2,2.032918632E-1,1.205475807E0
3.653344808E0,5.085432529E-2,2.420269251E-1,1.162946701E0
3.658363975E0,9.034597874E-2,2.177201509E-1,1.175291061E0
3.663383141E0,9.816896915E-2,1.076432467E-1,1.246014595E0
3.668402308E0,6.443655491E-2,-3.437298536E-2,1.347489357E0
3.673421475E0,-3.417491913E-3,-1.249194741E-1,1.417520523E0
3.678440641E0,-7.154750824E-2,-1.500679851E-1,1.408352852E0
3.683459808E0,-1.634397507E-1,-1.316623092E-1,1.377521515E0
3.688478975E0,-2.046577930E-1,-7.333278656E-2,1.288036346E0
3.693498141E0,-2.212249041E-1,-1.446473598E-2,1.229696274E0
3.698517308E0,-2.644076347E-1,5.815923214E-2,1.158250809E0
3.703536475E0,-2.858761549E-1,1.245094538E-1,1.069030762E0
3.708555641E0,-3.210172653E-1,1.479802132E-1,9.932451248E-1
3.713574808E0,-3.165589571E-1,2.099731565E-1,9.273815155E-1
3.718593975E0,-3.021793365E-1,2.544936538E-1,8.583250046E-1
3.723613141E0,-2.669149637E-1,3.032228947E-1,8.016653061E-1
3.728632308E0,-2.433432341E-1,3.276866674E-1,7.800846100E-1
3.733651475E0,-1.910266876E-1,3.554002643E-1,7.684011459E-1
3.738670641E0,-1.293939352E-1,3.518055081E-1,8.359260559E-1
3.743689808E0,-7.170510292E-2,3.143222928E-1,9.275236130E-1
3.748708975E0,-3.709495068E-2,2.521371841E-1,1.032360077E0
3.753728141E0,-2.670764923E-3,1.456395984E-1,1.147989273E0
3.758747308E0,1.724410057E-2,5.551004410E-2,1.244470596E0
3.763766475E0,9.728670120E-4,-2.927231789E-2,1.221352577E0
3.768785641E0,6.398582458E-2,-1.595416069E-1,1.214931488E0
3.773804808E0,1.572861671E-1,-1.694737673E-1,1.333937645E0
3.778823975E0,1.810533404E-1,-1.256619692E-1,1.363004684E0
3.783843141E0,1.813241839E-1,-1.423435211E-1,1.296258926E0
3.788862308E0,2.113113403E-1,-2.170033455E-1,1.206815720E0
3.793881475E0,2.115904093E-1,-2.515637875E-1,1.142563820E0
3.798900641E0,1.231290102E-1,-2.410913706E-1,1.055603981E0
3.803919808E0,3.473281860E-2,-1.815421581E-1,9.722089767E-1
3.808938975E0,-7.211697102E-2,-1.206372976E-1,9.293823242E-1
3.813958141E0,-2.303884029E-1,-4.752635956E-2,9.700260162E-1
3.818977308E0,-4.229456186E-1,-2.184414864E-2,1.010334015E0
3.823996475E0,-6.037466526E-1,-2.566397190E-2,1.025061607E0
3.829015641E0,-7.272567749E-1,-7.649481297E-2,1.015678406E0
3.834034808E0,-7.945574522E-1,-1.001632214E-1,9.741706848E-1
3.839053975E0,-7.759306431E-1,-1.087806225E-1,9.364805222E-1
3.844073141E0,-6.803475618E-1,-1.072925329E-1,9.013872147E-1
3.849095381E0,-5.227813721E-1,-9.097957611E-2,8.379983902E-1
3.854112881E0,-3.416973352E-1,-8.758199215E-2,7.785634995E-1
3.859130381E0,-1.619052887E-1,-7.060945034E-2,6.803894043E-1
3.864147881E0,4.238247871E-3,-9.117174149E-2,5.878133774E-1
3.869165381E0,1.016495228E-1,-1.024981737E-1,4.866390228E-1
3.874183089E0,1.478830576E-1,-1.069434881E-1,4.149808884E-1
3.879201006E0,1.445688009E-1,-1.222766638E-1,3.631095886E-1
3.884219131E0,6.453156471E-2,-9.972405434E-2,3.652553558E-1
3.889237464E0,-2.818942070E-2,-7.750761509E-2,3.876514435E-1
3.894256006E0,-1.519507170E-1,-3.647804260E-2,3.814010620E-1
3.899274964E0,-2.778156996E-1,3.648757935E-2,4.202556610E-1
3.904294339E0,-3.412997723E-1,1.116281748E-1,4.705181122E-1
3.909313922E0,-3.052126169E-1,1.914876699E-1,5.142841339E-1
3.914333714E0,-1.397948265E-1,2.404385805E-1,5.112113953E-1
3.919353714E0,7.306861877E-2,2.207411528E-1,4.783029556E-1
3.924373922E0,2.749644518E-1,1.805682182E-1,4.039764404E-1
3.929394339E0,4.400908947E-1,1.449936628E-1,3.574619293E-1
3.934414756E0,5.125217438E-1,1.007455587E-1,2.649965286E-1
3.939435172E0,5.511950850E-1,7.857990265E-2,2.124176025E-1
3.944455589E0,5.303680897E-1,2.963840961E-2,1.507377625E-1
3.949476006E0,4.573712945E-1,-3.550517559E-2,1.571207047E-1
3.954495589E0,2.686762214E-1,-1.287401915E-1,1.039743423E-1
3.959514756E0,1.153495908E-1,-2.505068779E-1,1.306972504E-1
3.964533714E0,-2.064692974E-2,-3.227270842E-1,2.782411575E-1
3.969552672E0,-2.607272863E-1,-3.108566999E-1,3.414230347E-1
3.974571631E0,-4.783459902E-1,-2.881031036E-1,3.459615707E-1
3.979590589E0,-6.339104176E-1,-2.642551661E-1,2.983007431E-1
3.984609547E0,-7.432231903E-1,-2.579269409E-1,2.784748077E-1
3.989628506E0,-8.286501169E-1,-1.999467611E-1,2.767152786E-1
3.994647464E0,-7.683051825E-1,-1.105855703E-1,2.749671936E-1
3.999666422E0,-5.907562971E-1,-1.018381119E-2,3.016147614E-1
4.004685381E0,-3.768253326E-1,5.150592327E-2,2.578935623E-1
4.009704339E0,-1.531503797E-1,7.139778137E-2,1.966285706E-1
4.014723297E0,9.141558409E-2,6.193697453E-2,1.358709335E-1
4.019742256E0,2.943684459E-1,3.541696072E-2,8.876514435E-2
4.024761214E0,4.400008023E-1,1.341271400E-2,6.357574463E-2
4.029780172E0,4.981363416E-1,-3.998398781E-3,5.422210693E-2
4.034799131E0,4.361575842E-1,-2.398049831E-2,1.901531219E-2
4.039818089E0,3.448435068E-1,-1.686120033E-2,6.377983093E-2
4.044837047E0,2.163611054E-1,2.253246307E-2,1.545495987E-1
4.049856006E0,1.317195296E-1,2.013742924E-2,1.781282425E-1
4.054874964E0,7.131421566E-2,2.607309818E-2,1.801538467E-1
4.059893922E0,4.184776545E-2,4.617452621E-3,1.512823105E-1
4.064912881E0,2.278286219E-2,-9.559154510E-3,1.511259079E-1
4.069931839E0,-2.206563950E-4,-2.486324310E-2,1.758785248E-1
4.074950797E0,-1.156419516E-2,-5.683600903E-2,1.956491470E-1
4.079969756E0,-2.775031328E-2,-1.207369566E-1,1.915092468E-1
4.084988714E0,-9.046196938E-3,-1.567957401E-1,2.028932571E-1
4.090007672E0,3.018122911E-2,-1.414313316E-1,2.154521942E-1
4.095026631E0,1.139043570E-1,-1.404502392E-1,2.517414093E-1
4.100045589E0,1.621428132E-1,-1.038846970E-1,2.557582855E-1
4.105064547E0,1.967543364E-1,-6.524109840E-2,2.574644089E-1
4.110083506E0,1.966092288E-1,-4.128885269E-2,3.102817535E-1
4.115102672E0,2.248118818E-1,-1.188135147E-2,3.579511642E-1
4.120121839E0,2.037532032E-1,-1.106023788E-3,3.968877792E-1
4.125141006E0,1.623886824E-1,4.806518555E-4,3.748950958E-1
4.130160172E0,1.104585528E-1,3.687620163E-3,3.732128143E-1
4.135179339E0,5.499869585E-2,2.272200584E-2,3.489170074E-1
4.140198506E0,1.585632563E-2,3.722131252E-2,3.745765686E-1
4.145217672E0,-1.906609535E-2,3.056967258E-2,3.820991516E-1
4.150236839E0,-3.673464060E-2,3.280854225E-2,3.894720078E-1
4.155256006E0,-4.921507835E-2,4.621028900E-3,3.753137589E-1
4.160275172E0,-3.394639492E-2,-2.761793137E-2,3.766069412E-1
4.165294339E0,7.523834705E-3,-3.298795223E-2,3.682870865E-1
4.170313506E0,9.484052658E-3,-7.097280025E-2,3.124542236E-1
4.175332672E0,4.082858562E-2,-2.938246727E-2,2.154788971E-1
4.180351839E0,6.292614341E-2,3.681182861E-3,1.454172134E-1
4.185371006E0,6.775850058E-2,5.723035336E-2,5.464649200E-2
4.190390172E0,8.409461379E-2,7.930457592E-2,-2.571010590E-2
4.195409339E0,1.121510267E-1,9.400033951E-2,-6.721973419E-2
4.200428506E0,1.060098112E-1,5.985796452E-2,-7.848453522E-2
4.205447672E0,1.360259652E-1,6.728351116E-2,-8.472156525E-2
4.210470693E0,1.701622605E-1,5.989623070E-2,-8.362388611E-2
4.215490277E0,1.464679539E-1,4.594635963E-2,-6.461048126E-2
4.220509443E0,1.387981176E-1,4.529118538E-2,-2.078056335E-2
4.225528454E0,6.739473343E-2,3.507888317E-2,1.557159424E-2
4.230547412E0,-1.394289732E-2,2.589714527E-2,8.245372772E-2
4.235566370E0,-5.871057510E-2,1.149094105E-2,1.415767670E-1
4.240585329E0,-7.236608863E-2,2.402305603E-3,1.810846329E-1
4.245604287E0,-6.939926744E-2,2.709400654E-2,2.011432648E-1
4.250623245E0,-5.706357956E-2,3.050708771E-2,2.446222305E-1
4.255644183E0,-3.785324097E-2,3.187358379E-2,2.662229538E-1
4.260661475E0,2.163213491E-2,2.775478363E-2,2.827758789E-1
4.265678766E0,7.616913319E-2,2.649557590E-2,2.705907822E-1
4.270696162E0,1.140701473E-1,4.620921612E-2,2.382783890E-1
4.275713766E0,1.200875342E-1,5.128049850E-2,2.180891037E-1
4.280731579E0,1.480416059E-1,6.571900845E-2,2.004575729E-1
4.285749600E0,1.726460755E-1,7.771754265E-2,1.746921539E-1
4.290767829E0,1.842555106E-1,6.955945492E-2,1.503620148E-1
4.295786370E0,1.472908556E-1,5.207645893E-2,1.440687180E-1
4.300805329E0,1.142629385E-1,1.813435555E-2,1.295242310E-1
4.305824600E0,8.352664113E-2,-1.676023006E-2,1.352577209E-1
4.310844079E0,3.757959604E-2,-3.968882561E-2,1.207284927E-1
4.315863766E0,3.986567259E-3,-4.596626759E-2,1.098604202E-1
4.320883662E0,-2.330988646E-2,-5.467891693E-2,1.014413834E-1
4.325903766E0,-2.783814073E-2,-4.436337948E-2,1.049575806E-1
4.330924079E0,-5.281817913E-2,-3.884744644E-2,8.469676971E-2
4.335944495E0,-7.100138068E-2,-2.376019955E-2,6.697750092E-2
4.340964912E0,-7.424736023E-2,4.273891449E-3,6.481361389E-2
4.345985329E0,-5.415794253E-2,2.265012264E-2,6.266212463E-2
4.351005745E0,-1.427420974E-2,8.952021599E-3,4.867267609E-2
4.356025641E0,3.386199474E-2,-2.584218979E-2,2.177906036E-2
4.361044912E0,4.908394814E-2,-3.412044048E-2,3.468513489E-3
4.366064079E0,1.241996884E-1,-5.397713184E-2,-5.736064911E-2
4.371083245E0,1.220609248E-1,-4.724454880E-2,-2.738952637E-2
4.376102412E0,7.281914353E-2,-3.802323341E-2,-2.492809296E-2
4.381121475E0,5.407476425E-2,-2.181982994E-2,-1.654529572E-2
4.386140433E0,4.538181424E-2,-3.387451172E-3,4.839897156E-3
4.391159391E0,3.605121374E-2,9.937405586E-3,2.840614319E-2
4.396178350E0,3.066650033E-2,3.736150265E-2,3.991031647E-2
4.401197308E0,2.326557040E-2,1.563072205E-2,7.978153229E-2
4.406216266E0,2.068147063E-2,2.120757103E-2,7.061958313E-2
4.411235225E0,1.903793216E-2,2.532398701E-2,7.573223114E-2
4.416254183E0,-2.175807953E-3,5.206084251E-2,6.654930115E-2
4.421273141E0,-2.153539658E-2,6.211340427E-2,3.251171112E-2
4.426292100E0,-5.420774221E-3,8.173453808E-2,1.420402527E-2
4.431311058E0,3.219157457E-2,7.885861397E-2,1.152801514E-2
4.436330016E0,7.711774111E-2,4.898917675E-2,-8.864402771E-3
4.441348975E0,1.112540066E-1,3.641319275E-2,3.046035767E-3
4.446367933E0,1.204661429E-1,3.477096558E-2,3.032493591E-2
4.451386891E0,9.170779586E-2,2.029669285E-2,5.504131317E-2
4.456405850E0,3.345814347E-2,4.636311531E-2,8.312129974E-2
4.461424808E0,9.089142084E-3,5.084669590E-2,8.367061615E-2
4.466443766E0,-4.176199436E-4,3.370940685E-2,7.351112366E-2
4.471462725E0,-1.096099615E-3,-9.591698647E-3,6.935882568E-2
4.476481683E0,2.238753438E-2,-2.058935165E-2,6.998825073E-2
4.481500641E0,2.688264847E-2,-3.521251678E-2,5.991268158E-2
4.486519600E0,3.703999519E-2,-4.137027264E-2,7.484626770E-2
4.491538558E0,7.685750723E-3,-2.967715263E-2,8.133316040E-2
4.496557516E0,-3.420028090E-2,3.667271137E-2,6.401157379E-2
4.501576475E0,-1.713544130E-2,2.674603462E-2,6.109046936E-2
4.506595433E0,3.734117746E-2,1.105237007E-2,1.070404053E-2
4.511614391E0,8.279094100E-2,-1.372444630E-2,-2.141952515E-2
4.516633350E0,1.159228384E-1,1.080405712E-2,-3.658866882E-2
4.521652308E0,1.051581502E-1,2.469122410E-2,6.591796875E-3
4.526671266E0,9.627237916E-2,2.668082714E-2,5.776119232E-2
4.531690329E0,1.012322903E-1,2.846586704E-2,9.069442749E-2
4.536709495E0,8.291649818E-2,2.750122547E-2,1.114444733E-1
4.541728662E0,5.537894368E-2,2.511596680E-2,1.236763000E-1
4.546747829E0,2.683961391E-2,1.541829109E-2,1.037197113E-1
4.551766995E0,7.165968418E-4,9.187817574E-3,9.813594818E-2
4.556786162E0,-1.586258411E-2,-1.944899559E-2,9.379768372E-2
4.561805329E0,-1.628130674E-3,-2.770471573E-2,8.473014832E-2
4.566825537E0,1.361089945E-2,-3.937947750E-2,8.524703979E-2
4.571846787E0,3.211534023E-2,-2.264142036E-2,7.147693634E-2
4.576867620E0,3.017494082E-2,1.274788380E-2,6.846904755E-2
4.581886579E0,5.052146316E-2,2.746021748E-2,6.662750244E-2
4.586905537E0,6.667366624E-2,2.519381046E-2,3.625488281E-2
4.591924495E0,4.908090830E-2,2.819299698E-4,1.678371429E-2
4.596943454E0,7.721871138E-3,6.536960602E-3,-2.269744873E-2
4.601962412E0,-2.153608203E-2,7.079362869E-3,-7.249259949E-2
4.606981370E0,-2.451598644E-2,1.286029816E-2,-1.206083298E-1
4.612000329E0,-4.280355573E-2,4.058587551E-2,-1.409139633E-1
4.617019287E0,-3.590431809E-2,8.430922031E-2,-1.347980499E-1
4.622038245E0,-3.986155987E-2,9.749698639E-2,-1.120042801E-1
4.627057204E0,-4.619446397E-2,1.304216385E-1,-1.035079956E-1
4.632076162E0,-1.479592919E-2,1.258357763E-1,-6.410503387E-2
4.637095120E0,3.507459164E-2,1.101146936E-1,-3.086090088E-2
4.642114079E0,7.516270876E-2,7.620775700E-2,-3.576469421E-2
4.647133037E0,1.119695902E-1,3.586280346E-2,-9.751319885E-2
4.652151995E0,1.243501902E-1,-4.186785221E-2,-1.456079483E-1
4.657170954E0,1.169809103E-1,-7.130062580E-2,-1.552619934E-1
4.662189912E0,1.214196980E-1,-1.337112188E-1,-6.155395508E-2
4.667208870E0,1.038618088E-1,-1.553169489E-1,7.051563263E-2
4.672227829E0,8.442863822E-2,-1.640199423E-1,1.835918427E-1
4.677246787E0,8.503943682E-2,-1.589212418E-1,2.089691162E-1
4.682265745E0,6.443241239E-2,-1.201286316E-1,2.233438492E-1
4.687284704E0,7.478666306E-2,-1.108200550E-1,2.184896469E-1
4.692303662E0,6.583923101E-2,-3.428101540E-2,1.744327545E-1
4.697322620E0,9.125831723E-2,1.195168495E-2,7.138347626E-2
4.702341579E0,1.327971816E-1,7.827425003E-2,-2.364349365E-2
4.707360537E0,1.557120979E-1,1.208535433E-1,-9.524536133E-2
4.712379495E0,1.993692219E-1,1.588975191E-1,-1.032476425E-1
4.717398454E0,3.151911795E-1,2.004126310E-1,-5.485534668E-3
4.722417412E0,2.665015459E-1,1.643419266E-1,1.311206818E-2
4.727436370E0,1.496704221E-1,1.177090406E-1,6.732940674E-4
4.732455537E0,4.837188125E-2,6.159043312E-2,2.983570099E-2
4.737474704E0,-4.552784562E-2,2.322351933E-2,1.097354889E-1
4.742493870E0,-1.049327850E-1,3.413558006E-3,2.232828140E-1
4.747513037E0,-1.239525974E-1,-3.513193130E-2,3.535251617E-1
4.752532204E0,-9.931135178E-2,-6.403160095E-2,4.041242599E-1
4.757551370E0,-6.691884995E-2,-7.747745514E-2,4.101629257E-1
4.762570537E0,-4.136231542E-2,-9.324634075E-2,3.898382187E-1
4.767589704E0,-5.041742325E-2,-6.837749481E-2,3.481340408E-1
4.772608870E0,-5.016097426E-2,-6.586587429E-2,2.698335648E-1
4.777628037E0,-2.523028851E-2,-5.067396164E-2,2.039861679E-1
4.782647204E0,2.662628889E-2,-1.906740665E-2,1.208639145E-1
4.787666370E0,8.977812529E-2,3.516840935E-2,4.442596436E-2
4.792685537E0,1.261077970E-1,6.471109390E-2,-2.532768250E-2
4.797704704E0,1.130661964E-1,1.007974148E-1,-1.264181137E-1
4.802723870E0,4.022502899E-2,1.366704702E-1,-2.015390396E-1
4.807743037E0,1.133349538E-2,1.488919258E-1,-2.579793930E-1
4.812762204E0,-8.253872395E-3,1.457902193E-1,-2.508096695E-1
4.817781370E0,-4.088997841E-3,1.178519726E-1,-1.960029602E-1
4.822800537E0,1.046946645E-2,9.457778931E-2,-1.581344604E-1
4.827819704E0,2.363815904E-2,6.626904011E-2,-9.315681458E-2
4.832838870E0,4.155442119E-2,5.507826805E-3,-7.491683960E-2
4.837858037E0,1.887762547E-2,-5.092680454E-2,-1.285934448E-2
4.842877204E0,-4.432335496E-2,-1.247299910E-1,1.661205292E-2
4.847896370E0,-9.783518314E-2,-1.811434031E-1,-2.568597794E-1
4.852915537E0,-8.963677287E-2,-1.721063852E-1,-3.296632767E-1
4.857934704E0,-4.824179411E-2,-9.214115143E-2,-3.233327866E-1
4.862953870E0,1.336762309E-2,-1.064360142E-2,-2.824258804E-1
4.867973037E0,6.065833569E-2,1.293635368E-2,-2.155523300E-1
4.872992204E0,1.212060452E-2,-6.426048279E-2,3.363037109E-2
4.878011370E0,-2.155888081E-2,-1.195086241E-1,2.792549133E-1
4.883030537E0,4.510805011E-2,-9.737157822E-2,3.551673889E-1
4.888049704E0,1.032397449E-1,-4.449772835E-2,4.053306580E-1
4.893068870E0,1.581795067E-1,-7.097482681E-3,3.671207428E-1
4.898088037E0,1.468153745E-1,1.526176929E-2,2.983026505E-1
4.903107204E0,1.241587400E-1,1.925694942E-2,2.098293304E-1
4.908126370E0,5.558124185E-2,4.077267647E-2,1.268033981E-1
4.913145537E0,5.503594875E-4,4.179072380E-2,5.275249481E-2
4.918164704E0,-3.259858489E-2,3.786492348E-2,4.932975769E-2
4.923183870E0,-1.216167808E-1,1.082980633E-1,9.692573547E-2
4.928203037E0,-8.463296294E-2,1.022268534E-1,2.021455765E-1
4.933222204E0,-3.316316009E-2,8.802258968E-2,2.160892487E-1
4.938241370E0,2.947479486E-2,4.823970795E-2,2.119579315E-1
4.943260537E0,7.080000639E-2,4.513394833E-2,1.958866119E-1
4.948279704E0,7.705685496E-2,3.583073616E-2,1.561422348E-1
4.953298870E0,9.633375704E-2,1.593124866E-2,8.824062347E-2
4.958318037E0,8.028894663E-2,1.415240765E-2,2.213478088E-2
4.963337204E0,7.543051243E-2,1.149618626E-2,-5.522346497E-2
4.968356370E0,6.490147114E-2,8.057355881E-3,-1.033697128E-1
4.973375537E0,7.008904219E-2,2.698898315E-3,-1.166009903E-1
4.978394704E0,6.458699703E-2,2.144372463E-2,-1.166057587E-1
4.983413870E0,-4.491922259E-2,1.836030483E-1,8.039474487E-3
4.988433037E0,-3.586602211E-2,2.259804010E-1,1.588277817E-1
4.993452204E0,-4.223340750E-2,1.673256159E-1,2.013454437E-1
4.998471370E0,-3.378012776E-2,1.083277464E-1,1.994113922E-1
5.003490537E0,-3.221708536E-2,4.821395874E-2,1.677064896E-1
5.008509704E0,1.026368141E-2,-2.454340458E-2,9.467983246E-2
5.013528870E0,4.979372025E-2,-8.112049103E-2,9.222030640E-3
5.018548037E0,7.724389434E-2,-1.131241322E-1,-7.545280457E-2
5.023567204E0,1.021803916E-1,-1.347829103E-1,-1.498165131E-1
5.028586370E0,1.257379949E-1,-1.366204023E-1,-1.830797195E-1
5.033605537E0,1.241146624E-1,-1.354588270E-1,-1.744050980E-1
5.038624704E0,1.138434112E-1,-1.289613247E-1,-1.514606476E-1
5.043643870E0,1.069769263E-1,-9.717202187E-2,-9.302520752E-2
5.048663037E0,9.405043721E-2,-9.031617641E-2,-1.366710663E-2
5.053682204E0,5.504387617E-2,-5.016148090E-2,4.130649567E-2
5.058701370E0,4.959887266E-2,-2.452969551E-2,9.701919556E-2
5.063720537E0,3.814512491E-2,-8.840441704E-3,1.344156265E-1
5.068739704E0,4.585760832E-2,1.469552517E-2,1.655063629E-1
5.073758870E0,4.400542378E-2,3.527557850E-2,1.784591675E-1
5.078778037E0,4.342544079E-2,4.343044758E-2,1.686801910E-1
5.083797204E0,5.493196845E-2,6.890332699E-2,1.494150162E-1
5.088816370E0,4.146516323E-2,7.487761974E-2,1.243247986E-1
5.093835537E0,5.320423841E-2,8.643090725E-2,8.039665222E-2
5.098854704E0,3.643232584E-2,8.811151981E-2,4.391002655E-2
5.103873870E0,3.525945544E-2,8.258056641E-2,1.364994049E-2
5.108893037E0,2.339026332E-2,8.193063736E-2,-1.040744781E-2
5.113912204E0,2.114856243E-2,7.800304890E-2,-5.320453644E-2
5.118931370E0,2.242517471E-2,6.964099407E-2,-6.591892242E-2
5.123950537E0,1.058965921E-2,6.285655499E-2,-6.184959412E-2
5.128969704E0,9.612560272E-3,4.215002060E-2,-7.319641113E-2
5.133988870E0,1.816043258E-2,1.966285706E-2,-7.012367249E-2
5.139008037E0,2.777421474E-2,-1.196503639E-3,-4.685211182E-2
5.144027204E0,2.073106170E-2,-5.053639412E-3,-1.661109924E-2
5.149046370E0,3.268477321E-2,-1.598775387E-2,-7.989883423E-3
5.154065537E0,2.904799581E-2,-4.561865330E-2,-5.922317505E-4
5.159084704E0,4.555532336E-2,-2.997040749E-2,5.539894104E-3
5.164103870E0,4.051953554E-2,-5.375361443E-2,3.177833557E-2
5.169123037E0,4.514130950E-2,-5.608367920E-2,5.303287506E-2
5.174142204E0,4.863646626E-2,-3.711736202E-2,6.459999084E-2
5.179161370E0,4.849201441E-2,-4.582631588E-2,6.534671783E-2
5.184180537E0,5.073007941E-2,-4.388201237E-2,5.538368225E-2
5.189199704E0,4.706946015E-2,-3.745770454E-2,3.952407837E-2
5.194218870E0,4.108503461E-2,-1.578354836E-2,2.852153778E-2
5.199238037E0,4.111975431E-2,-2.405691147E-2,1.284694672E-2
5.204257204E0,2.933752537E-2,-2.051627636E-2,3.216743469E-3
5.209276370E0,4.619604349E-2,-3.862023354E-3,-2.755165100E-3
5.214295537E0,2.732455730E-2,-1.823472977E-2,-1.817798615E-2
5.219314704E0,3.111347556E-2,4.400610924E-3,-3.464317322E-2
5.224333870E0,2.777031064E-2,1.032817364E-2,-7.029533386E-3
5.229353037E0,2.563977242E-2,1.508378983E-2,-1.287460327E-2
5.234372204E0,2.236211300E-2,2.346169949E-2,-7.965087891E-3
5.239391370E0,1.304706931E-2,2.825748920E-2,1.115226746E-2
5.244410537E0,2.401164174E-2,1.870465279E-2,2.653980255E-2
5.249429704E0,2.422773838E-2,1.881551743E-2,3.587722778E-2
5.254448870E0,3.262725472E-2,3.677237034E-2,2.733516693E-2
5.259468037E0,1.841890812E-2,2.726197243E-2,1.173973083E-2
5.264487204E0,2.803406119E-2,2.957630157E-2,2.948760986E-2
5.269506370E0,3.515306115E-2,3.549504280E-2,2.098274231E-2
5.274525537E0,2.453258634E-2,2.941894531E-2,2.084827423E-2
5.279544704E0,2.586272359E-2,4.232048988E-2,2.901268005E-2
5.284563870E0,2.717941999E-2,4.439246655E-2,3.116512299E-2
5.289584443E0,3.314039111E-2,2.144372463E-2,2.616119385E-2
5.294601110E0,3.426933289E-2,1.778173447E-2,2.952671051E-2
5.299617777E0,3.912910819E-2,2.247762680E-2,2.100181580E-2
5.304634600E0,4.392281175E-2,2.712166309E-2,4.236221313E-3
5.309651631E0,4.393273592E-2,3.537714481E-2,4.245758057E-3
5.314669027E0,4.274743795E-2,3.056848049E-2,-7.604598999E-3
5.319686839E0,4.395774007E-2,3.656363487E-2,-2.722740173E-3
5.324705068E0,2.725580335E-2,3.072583675E-2,-8.551597595E-3
5.329723714E0,2.976381779E-2,2.613675594E-2,1.653766632E-2
5.334742777E0,3.221493959E-2,1.683688164E-2,1.530075073E-2
5.339762256E0,1.918408275E-2,2.427089214E-2,2.001571655E-2
5.344782152E0,1.813879609E-2,2.324485779E-2,4.010772705E-2
5.349802464E0,2.543875575E-2,1.866829395E-2,2.798080444E-2
5.354823037E0,3.743246198E-2,9.339451790E-3,2.307033539E-2
5.359843818E0,1.975297928E-2,8.372187614E-3,2.176094055E-2
5.364864808E0,3.313729167E-2,7.310509682E-3,8.573532104E-3
5.369885850E0,3.216359019E-2,5.106687546E-3,-8.057594299E-3
5.374906891E0,8.721828461E-3,-4.176259041E-3,-1.623439789E-2
5.379927777E0,-2.678960562E-3,-5.033493042E-3,-2.789688110E-2
5.384947360E0,1.683720946E-2,-9.380340576E-3,-8.586883545E-3
5.389966527E0,1.111316681E-2,-1.966369152E-2,-1.912784576E-2
5.394985693E0,1.724308729E-2,-9.656786919E-3,-9.396553040E-3
5.400004860E0,2.192285657E-2,-2.231287956E-2,3.801345825E-3
5.405023870E0,2.893218398E-2,-2.058100700E-2,5.026817322E-3
5.410042829E0,4.065623879E-2,-1.890408993E-2,2.166748047E-2
5.415061787E0,5.690741539E-2,-2.687513828E-2,3.932476044E-2
5.420080745E0,6.131935120E-2,-1.457083225E-2,6.515789032E-2
5.425099704E0,6.933978200E-2,-1.439511776E-2,4.563903809E-2
5.430118662E0,7.623296976E-2,4.750013351E-3,5.477333069E-2
5.435137620E0,6.432741880E-2,1.153111458E-3,3.534507751E-2
5.440156579E0,6.687808037E-2,-1.006126404E-4,3.031635284E-2
5.445175537E0,6.117919087E-2,5.790710449E-3,1.939773560E-2
5.450194495E0,5.669975281E-2,1.884591579E-2,1.214885712E-2
5.455213454E0,3.317737579E-2,2.366340160E-2,2.422332764E-4
5.460232412E0,5.099147558E-3,2.144420147E-2,1.515388489E-3
5.465251370E0,1.287341118E-2,2.893173695E-2,6.377220154E-3
5.470270329E0,-2.744585276E-3,4.362666607E-2,-6.236171722E-2
5.475289287E0,-3.305643797E-3,4.984545708E-2,-1.127080917E-1
5.480308245E0,-1.163682342E-2,4.885149002E-2,-1.519355774E-1
5.485327204E0,4.924565554E-3,4.520034790E-2,-1.113576889E-1
5.490346162E0,-5.772054195E-3,2.358174324E-2,-1.776790619E-2
5.495365120E0,6.924629211E-3,3.074407578E-3,1.046152115E-1
5.500384079E0,2.213245630E-2,-9.187936783E-3,1.190605164E-1
5.505403037E0,6.136119366E-2,-2.376496792E-2,5.979156494E-2
5.510421995E0,7.266476750E-2,-3.199231625E-2,9.409904480E-3
5.515440954E0,5.262869596E-2,-2.196502686E-2,-4.401493073E-2
5.520459912E0,2.454742789E-2,2.604722977E-4,-1.004762650E-1
5.525478870E0,-6.232619286E-3,-1.286602020E-2,-1.255378723E-1
5.530497829E0,9.328126907E-5,-1.723408699E-3,-1.254243851E-1
5.535516787E0,-6.614565849E-3,-5.733489990E-3,-1.039123535E-1
5.540535745E0,2.179646492E-2,-8.410096169E-3,-4.815101624E-2
5.545554704E0,4.905971885E-2,-2.774953842E-2,4.771232605E-3
5.550573662E0,5.898740888E-2,-3.648114204E-2,7.266521454E-2
5.555592777E0,8.391037583E-2,-4.078555107E-2,1.292638779E-1
5.560611943E0,9.732866287E-2,-4.898381233E-2,1.651620865E-1
5.565631110E0,9.674173594E-2,-5.662679672E-2,1.958942413E-1
5.570650277E0,8.075770736E-2,-2.450335026E-2,2.013187408E-1
5.575669443E0,1.005655825E-1,-1.580131054E-2,1.887817383E-1
5.580688610E0,9.318631887E-2,-2.961158752E-3,1.525144577E-1
5.585707777E0,7.789266109E-2,9.376764297E-3,1.117401123E-1
5.590726943E0,4.988741875E-2,2.381682396E-2,6.534671783E-2
5.595746110E0,4.111629725E-2,3.696548939E-2,2.171993256E-2
5.600765277E0,9.876340628E-3,5.488908291E-2,-9.648323059E-3
5.605784443E0,-1.083493233E-3,5.884766579E-2,-4.068088531E-2
5.610803610E0,-6.219953299E-3,8.223867416E-2,-4.881763458E-2
5.615822777E0,-1.150107384E-2,7.629370689E-2,-6.747817993E-2
5.620841943E0,-1.579448581E-2,1.042782068E-1,-7.875156403E-2
5.625861110E0,8.292227983E-3,1.017266512E-1,-6.727600098E-2
5.630880277E0,-1.186919212E-2,1.198936701E-1,-4.630756378E-2
5.635899443E0,1.082605124E-2,1.133782864E-1,-3.612804413E-2
5.640918610E0,1.257508993E-3,1.131362915E-1,-1.049995422E-3
5.645937777E0,-4.544228315E-3,1.011277437E-1,-5.416870117E-3
5.650956943E0,-6.512403488E-4,8.204138279E-2,5.680084229E-3
5.655976110E0,2.036899328E-3,7.603597641E-2,2.734470367E-2
5.660995277E0,2.377727628E-2,7.705938816E-2,3.812122345E-2
5.666014443E0,1.569294930E-2,4.818165302E-2,3.452396393E-2
5.671033610E0,2.901768684E-2,4.304146767E-2,4.040718079E-2
5.676052777E0,2.451938391E-2,2.215993404E-2,3.787040710E-2
5.681071943E0,2.612939477E-2,-3.425478935E-3,4.839324951E-2
5.686091110E0,4.205456376E-2,-2.904450893E-2,8.926391602E-3
5.691110277E0,4.129278660E-2,-3.678679466E-2,-4.119873047E-3
5.696129443E0,4.413333535E-2,-6.465530396E-2,-1.230812073E-2
5.701148610E0,6.005561352E-2,-6.734037399E-2,-3.110694885E-2
5.706167777E0,5.679941177E-2,-7.946944237E-2,-2.600288391E-2
5.711186943E0,4.038244486E-2,-9.735369682E-2,-2.330589294E-2
5.716206110E0,2.766847610E-2,-9.596776962E-2,-2.535629272E-2
5.721225277E0,1.725393534E-2,-1.063594818E-1,-2.262687683E-2
5.726244443E0,2.343401313E-2,-9.283089638E-2,-1.278400421E-2
5.731263610E0,2.346295118E-2,-8.768689632E-2,1.727104187E-3
5.736282777E0,2.582359314E-2,-9.086692333E-2,2.205657959E-2
5.741301943E0,3.159072995E-2,-7.034063339E-2,4.813671112E-2
5.746321110E0,3.245648742E-2,-6.320977211E-2,6.209278107E-2
5.751340277E0,2.719220519E-2,-3.852427006E-2,8.538722992E-2
5.756359443E0,2.890327573E-2,-2.016985416E-2,8.707714081E-2
5.761378610E0,3.286948800E-2,-1.286983490E-2,4.834651947E-2
5.766397777E0,3.792488575E-2,4.974603653E-3,3.010272980E-2
5.771416943E0,3.574261069E-2,2.609467506E-2,5.471897125E-2
5.776436110E0,2.416464686E-2,4.586076736E-2,3.521251678E-2
5.781455277E0,6.841152906E-3,5.020582676E-2,3.608417511E-2
5.786474443E0,1.614898443E-3,7.131290436E-2,-5.750656128E-3
5.791493610E0,4.838913679E-3,7.587909698E-2,-5.193328857E-2
5.796512777E0,4.481881857E-3,8.666169643E-2,-8.105278015E-2
5.801531943E0,2.907931805E-3,8.811485767E-2,-9.088897705E-2
5.806551110E0,-6.995499134E-3,8.856201172E-2,-8.754920959E-2
5.811570277E0,1.886138320E-2,6.309342384E-2,-7.351207733E-2
5.816589443E0,2.094832063E-2,6.283950806E-2,-4.532814026E-2
5.821608610E0,1.955094934E-2,4.124403000E-2,-3.042793274E-2
5.826627777E0,3.958469629E-2,3.164851665E-2,-1.091098785E-2
5.831646943E0,5.709251761E-2,1.843035221E-2,-1.078605652E-3
5.836666110E0,5.427652597E-2,1.465463638E-2,4.544067383E-2
5.841685277E0,6.218332052E-2,-7.127285004E-3,3.336048126E-2
5.846704443E0,6.300312281E-2,5.415201187E-3,3.676414490E-2
5.851723610E0,5.903074145E-2,-7.379293442E-3,6.145000458E-2
5.856742777E0,5.882647634E-2,-2.262198925E-2,3.366756439E-2
5.861761943E0,5.743923783E-2,-5.903124809E-3,3.931617737E-2
5.866781110E0,4.540172219E-2,-1.324033737E-2,2.470493317E-2
5.871800277E0,5.121386051E-2,6.758689880E-3,1.495552063E-2
5.876819443E0,5.337941647E-2,2.058875561E-2,3.139019012E-2
5.881838610E0,4.822888970E-2,2.251291275E-2,2.870273590E-2
5.886857777E0,3.950953484E-2,2.922892570E-2,2.604675293E-2
5.891876943E0,3.311219811E-2,2.524483204E-2,2.935314178E-2
5.896896110E0,2.084538341E-2,4.166710377E-2,4.453945160E-2
5.901915277E0,2.402213216E-2,5.324506760E-2,3.586196899E-2
5.906934443E0,2.008324862E-2,5.544805527E-2,1.661491394E-2
5.911953610E0,2.096095681E-2,5.173373222E-2,2.483844757E-2
5.916972777E0,5.278885365E-4,5.994939804E-2,1.638317108E-2
5.921991943E0,9.981602430E-3,6.696069241E-2,4.446983337E-3
5.927011110E0,1.341930032E-2,5.143761635E-2,-1.440048218E-3
5.932030277E0,1.092875004E-2,5.022573471E-2,6.958961487E-3
5.937049443E0,2.641868591E-2,4.429900646E-2,-3.697395325E-3
5.942068610E0,2.035769820E-2,3.958356380E-2,-5.962371826E-3
5.947087777E0,2.395623922E-2,5.291700363E-3,-4.631042480E-3
5.952106943E0,3.119581938E-2,2.347934246E-2,-1.400089264E-2
5.957126110E0,3.363853693E-2,4.699587822E-3,-1.735687256E-2
5.962145277E0,2.652633190E-2,-5.598783493E-3,-2.068328857E-2
5.967164443E0,3.732666373E-2,-1.333403587E-2,-8.529663086E-3
5.972183610E0,4.090383649E-2,-1.981794834E-2,4.710197449E-3
5.977202777E0,5.030763149E-2,-3.225994110E-2,-5.921363831E-3
5.982221943E0,3.236034513E-2,-3.855895996E-2,-4.570960999E-3
5.987241110E0,2.410528064E-2,-4.595541954E-2,-5.599021912E-3
5.992260277E0,3.497853875E-2,-4.135060310E-2,-6.602287292E-3
5.997279443E0,4.817137122E-2,-3.306889534E-2,-4.444122314E-4
6.002298610E0,3.743740916E-2,-2.843070030E-2,-6.213188171E-3
6.007320485E0,2.791205049E-2,-3.329920769E-2,-1.905250549E-2
6.012337777E0,2.079468966E-2,-3.097236156E-2,2.644538879E-3
6.017355068E0,2.206897736E-2,-1.680827141E-2,-5.518913269E-3
6.022372464E0,2.330222726E-2,-1.472210884E-2,2.988815308E-3
6.027390068E0,2.102783322E-2,-7.930517197E-3,1.925468445E-3
6.032407881E0,2.953019738E-2,-1.790642738E-2,2.042770386E-3
6.037425902E0,1.307287812E-2,-1.019752026E-2,1.161956787E-2
6.042444131E0,9.793519974E-3,7.917881012E-4,1.869964600E-2
6.047462672E0,1.488181949E-2,-1.382470131E-3,2.571964264E-2
6.052481631E0,8.069306612E-3,3.456234932E-3,1.722431183E-2
6.057500902E0,4.815787077E-3,9.376883507E-3,3.015327454E-2
6.062520381E0,3.488808870E-2,1.639771461E-2,1.091957092E-2
6.067540068E0,3.032642603E-2,1.861071587E-2,2.530097961E-3
6.072559964E0,1.987993717E-2,2.434098721E-2,9.638786316E-3
6.077580068E0,1.534473896E-2,2.178156376E-2,-3.483772278E-3
6.082600381E0,3.597012162E-2,3.232264519E-2,6.069183350E-3
6.087620797E0,4.082033038E-2,2.502334118E-2,1.301765442E-3
6.092641214E0,3.366065025E-2,3.098094463E-2,9.654998779E-3
6.097661631E0,2.649244666E-2,1.904666424E-2,2.267646790E-2
6.102682047E0,2.403071523E-2,4.398930073E-2,2.727413177E-2
6.107701943E0,4.768308997E-2,3.081238270E-2,2.591037750E-2
6.112721214E0,3.679093719E-2,3.424954414E-2,4.709339142E-2
6.117740381E0,3.553357720E-2,4.719626904E-2,3.249740601E-2
6.122759547E0,2.369636297E-2,3.981268406E-2,3.819751740E-2
6.127778714E0,3.226935863E-2,3.728985786E-2,1.537513733E-2
6.132797881E0,3.356724977E-2,3.592705727E-2,1.765918732E-2
6.137816943E0,4.080998898E-2,3.220009804E-2,8.053779602E-3
6.142835902E0,2.184444666E-2,4.285073280E-2,2.347564697E-2
6.147854860E0,2.198532224E-2,3.561985493E-2,1.265335083E-2
6.152873818E0,2.457052469E-2,2.495062351E-2,1.736831665E-2
6.157892777E0,3.198748827E-2,2.390527725E-2,2.205562592E-2
6.162911735E0,2.746903896E-2,1.455926895E-2,1.773834229E-3
6.167930693E0,3.011342883E-2,2.082562447E-2,-1.001167297E-2
6.172949652E0,1.021391153E-2,1.876914501E-2,-2.287483215E-2
6.177968610E0,3.199675679E-2,2.502822876E-2,-2.495098114E-2
6.182987568E0,2.629590034E-2,1.825082302E-2,-2.818298340E-2
6.188006527E0,2.773898840E-2,-1.505017281E-3,-1.951217651E-2
6.193025485E0,2.192863822E-2,9.723186493E-3,-3.110790253E-2
6.198044443E0,1.970595121E-2,-5.030632019E-4,1.306533813E-4
6.203063402E0,2.223750949E-2,-1.064419746E-2,7.365226746E-3
6.208082360E0,2.934974432E-2,-1.490020752E-2,1.807022095E-2
6.213101318E0,3.412288427E-2,-1.813924313E-2,5.595397949E-2
6.218120277E0,2.471494675E-2,-2.266907692E-2,7.213306427E-2
6.223139235E0,4.517632723E-2,-2.611434460E-2,7.390880585E-2
6.228158193E0,4.179498553E-2,-2.608132362E-2,8.870887756E-2
6.233177152E0,4.345852137E-2,-2.255332470E-2,6.539535522E-2
6.238196110E0,4.288521409E-2,-1.428020000E-2,4.940986633E-2
6.243215068E0,5.307212472E-2,-1.208996773E-2,4.304122925E-2
6.248234027E0,5.847033858E-2,8.337497711E-4,2.842903137E-2
6.253252985E0,3.413924575E-2,-6.445288658E-3,2.938938141E-2
6.258271943E0,1.828482747E-2,1.381909847E-2,-6.427764893E-3
6.263290902E0,7.250100374E-3,1.632714272E-2,2.219772339E-2
6.268309860E0,-2.447962761E-4,2.141642570E-2,2.332115173E-2
6.273328818E0,-1.595884562E-3,2.299058437E-2,-2.896404266E-2
6.278347777E0,3.305464983E-3,4.603791237E-2,-1.270771027E-1
6.283366735E0,6.170809269E-3,4.504883289E-2,-1.982631683E-1
6.288385797E0,1.126375794E-2,6.287121773E-2,-2.024164200E-1
6.293404964E0,1.552969217E-2,2.677154541E-2,-1.223440170E-1
6.298424131E0,2.730244398E-2,9.639501572E-3,8.018493652E-3
6.303443297E0,3.867715597E-2,-2.999424934E-3,9.565830231E-2
6.308462464E0,5.897161365E-2,-1.911771297E-2,1.089887619E-1
6.313481631E0,5.253657699E-2,-5.036008358E-2,7.240676880E-2
6.318500797E0,4.885268211E-2,-2.645099163E-2,1.245212555E-2
6.323519964E0,3.489288688E-2,-1.669418812E-2,-3.510475159E-2
6.328539131E0,1.505053043E-2,-2.078080177E-2,-1.095218658E-1
6.333558297E0,1.234054565E-3,-2.321195602E-2,-1.393575668E-1
6.338577464E0,1.530593634E-2,-2.894568443E-2,-1.178770065E-1
6.343596631E0,4.373744130E-2,-3.335273266E-2,-6.093502045E-2
6.348615797E0,5.123421550E-2,-3.657519817E-2,5.044937134E-3
6.353634964E0,7.009375095E-2,-5.299067497E-2,9.065246582E-2
6.358654131E0,8.565336466E-2,-5.058991909E-2,1.268272400E-1
6.363673297E0,9.783205390E-2,-6.172633171E-2,1.661872864E-1
6.368692464E0,8.259382844E-2,-4.603767395E-2,1.623725891E-1
6.373711631E0,8.311083913E-2,-3.583872318E-2,1.549196243E-1
6.378730797E0,9.712520242E-2,1.029253006E-3,1.331930161E-1
6.383749964E0,7.836696506E-2,2.537155151E-2,9.498119354E-2
6.388769131E0,6.014630198E-2,4.451715946E-2,7.011413574E-2
6.393788297E0,3.638294339E-2,5.983972549E-2,1.457977295E-2
6.398807464E0,1.872637868E-2,7.993221283E-2,-3.334236145E-2
6.403826631E0,-1.791623235E-2,1.025235653E-1,-6.419372559E-2
6.408845797E0,-1.416751742E-2,1.159305573E-1,-8.995342255E-2
6.413864964E0,-1.526409388E-2,1.309719086E-1,-1.094598770E-1
6.418884131E0,-1.775339246E-2,1.334717274E-1,-1.013870239E-1
6.423903297E0,-1.090189815E-2,1.152991056E-1,-8.138084412E-2
6.428922464E0,-4.286766052E-3,1.227324009E-1,-6.026172638E-2
6.433941631E0,3.403514624E-3,1.127434969E-1,-5.704212189E-2
6.438960797E0,-1.636165380E-2,9.602916241E-2,-1.580619812E-2
6.443979964E0,-3.928780556E-3,9.506213665E-2,-1.405620575E-2
6.448999131E0,-2.415090799E-3,6.804287434E-2,1.499080658E-2
6.454018297E0,3.259778023E-4,7.785487175E-2,4.138565063E-2
6.459037464E0,1.146548986E-2,4.945218563E-2,5.329132080E-2
6.464056631E0,7.058829069E-3,4.487431049E-2,4.963779449E-2
6.469075797E0,1.811045408E-2,4.398107529E-3,6.019783020E-2
6.474094964E0,5.464613438E-3,4.233241081E-3,5.041980743E-2
6.479114131E0,3.800821304E-2,-1.277530193E-2,4.305362701E-2
6.484133297E0,2.997252345E-2,-5.243563652E-2,4.995250702E-2
6.489152464E0,3.629440069E-2,-5.745780468E-2,4.015254974E-2
6.494171631E0,3.192099929E-2,-8.171188831E-2,4.344081879E-2
6.499190797E0,3.580319881E-2,-8.805441856E-2,3.005981445E-2
6.504209964E0,3.608927131E-2,-9.073102474E-2,3.741264343E-3
6.509229131E0,3.986790776E-2,-8.272624016E-2,-1.167964935E-2
6.514248297E0,5.069878697E-2,-8.298838139E-2,-3.763580322E-2
6.519267464E0,4.588857293E-2,-7.491481304E-2,-4.556941986E-2
6.524286631E0,3.879293799E-2,-6.563127041E-2,-4.510879517E-2
6.529305797E0,4.122355580E-2,-6.933951378E-2,-4.106426239E-2
6.534324964E0,3.649044037E-2,-5.035996437E-2,-1.210308075E-2
6.539344131E0,5.308148265E-2,-5.052888393E-2,-7.629394531E-6
6.544363297E0,4.330167174E-2,-4.356324673E-2,3.335380554E-2
6.549382464E0,3.712150455E-2,-3.669297695E-2,5.099678040E-2
6.554401631E0,3.447249532E-2,-9.864449501E-3,5.539894104E-2
6.559420797E0,4.366371036E-2,2.726113796E-2,7.397651672E-2
6.564439964E0,3.246676922E-2,1.523911953E-2,3.656864166E-2
6.569459131E0,3.075960279E-2,7.935166359E-3,3.624534607E-2
6.574478297E0,2.056908607E-2,3.732335567E-2,5.131816864E-2
6.579497464E0,1.739227772E-2,5.461084843E-2,4.370498657E-2
6.584516631E0,-1.202166080E-3,6.599283218E-2,3.856277466E-2
6.589535797E0,-1.821994781E-3,7.151079178E-2,-1.755046844E-2
6.594554964E0,-7.144898176E-3,6.900322437E-2,-6.126022339E-2
6.599574131E0,-6.487250328E-3,6.443893909E-2,-1.033620834E-1
6.604593297E0,7.213622332E-3,5.777060986E-2,-9.877109528E-2
6.609612464E0,1.130825281E-2,6.914281845E-2,-9.418392181E-2
6.614631631E0,1.419022679E-2,6.626749039E-2,-4.569339752E-2
6.619650797E0,1.831942797E-2,5.645823479E-2,-2.368927002E-2
6.624669964E0,1.779618859E-2,3.007209301E-2,-1.611614227E-2
6.629689131E0,3.404220939E-2,3.466558456E-2,3.249168396E-3
6.634708297E0,4.433244467E-2,6.950736046E-3,3.903579712E-2
6.639727464E0,4.879462719E-2,-1.825451851E-3,4.954624176E-2
6.644746631E0,7.108798623E-2,-1.426863670E-2,5.875110626E-2
6.649765797E0,5.055472255E-2,-5.632996559E-3,5.118656158E-2
6.654784964E0,7.176697254E-2,-1.985716820E-2,5.195140839E-2
6.659804131E0,6.200173497E-2,-2.231991291E-2,5.504322052E-2
6.664823297E0,5.115586519E-2,-9.562015533E-3,3.669548035E-2
6.669842464E0,4.745718837E-2,-2.062463760E-2,2.087974548E-2
6.674861631E0,4.137369990E-2,3.927230835E-3,-1.945495605E-3
6.679880797E0,4.123568535E-2,1.175761223E-2,-3.194808960E-3
6.684899964E0,3.390851617E-2,2.314424515E-2,-1.036071777E-2
6.689919131E0,1.112616062E-2,3.690326214E-2,7.478713989E-3
6.694938297E0,1.706138253E-2,5.783009529E-2,2.282619476E-2
6.699957464E0,3.342264891E-2,5.750131607E-2,2.740955353E-2
6.704976631E0,2.938663960E-2,6.808793545E-2,2.724742889E-2
6.709995797E0,2.538481355E-2,6.793010235E-2,5.724906921E-3
6.715014964E0,3.207841516E-2,7.977688313E-2,2.212524414E-3
6.720034131E0,1.274952292E-2,7.979047298E-2,-1.904582977E-2
6.725056370E0,2.694490552E-2,6.671059132E-2,-1.876258850E-2
6.730073870E0,3.758308291E-2,6.077098846E-2,-1.018524170E-2
6.735091370E0,4.000675678E-2,3.833711147E-2,6.651878357E-3
6.740108870E0,3.053161502E-2,3.969323635E-2,1.382446289E-2
6.745126422E0,2.585893869E-2,1.485943794E-2,1.380157471E-2
6.750144183E0,2.961921692E-2,6.787180901E-3,1.139545441E-2
6.755162152E0,3.325670958E-2,3.610134125E-3,-1.661300659E-3
6.760180329E0,2.852541208E-2,-8.988022804E-3,7.953643799E-3
6.765198714E0,2.983126044E-2,-2.032983303E-2,-7.445335388E-3
6.770217360E0,2.876180410E-2,-2.676641941E-2,-3.710746765E-3
6.775236422E0,3.477039933E-2,-3.193616867E-2,3.558158875E-3
6.780255850E0,4.073685408E-2,-2.753937244E-2,-5.847930908E-3
6.785275485E0,3.717923164E-2,-2.189147472E-2,-1.040744781E-2
6.790295329E0,4.087930918E-2,-2.933430672E-2,-1.017379761E-2
6.795315381E0,3.147304058E-2,-2.602791786E-2,-6.381988525E-3
6.800335641E0,2.319636941E-2,-2.735757828E-2,-1.328182220E-2
6.805356058E0,2.208682895E-2,-2.633476257E-2,-1.063346863E-2
6.810376475E0,3.392821550E-2,-2.417969704E-2,-1.751899719E-2
6.815396891E0,3.382480145E-2,-3.858768940E-2,-2.551746368E-2
6.820417308E0,3.374293447E-2,-2.208626270E-2,-3.583812714E-2
6.825437516E0,1.948764920E-2,-1.635670662E-2,-4.510879517E-3
6.830456995E0,3.023940325E-2,-2.145051956E-2,-2.094841003E-2
6.835476162E0,1.959326863E-2,-8.766531944E-3,1.378536224E-2
6.840495277E0,3.043866158E-2,-5.793809891E-3,-4.625320435E-4
6.845514235E0,2.116900682E-2,-1.001811028E-2,1.270866394E-2
6.850533193E0,3.094255924E-2,9.433388710E-3,2.931022644E-2
6.855552152E0,1.458188891E-2,-1.056742668E-2,3.981781006E-2
6.860571110E0,1.970764995E-2,2.527678013E-2,3.834342957E-2
6.865590068E0,1.529705524E-2,3.767490387E-3,2.737045288E-2
6.870609027E0,3.339394927E-2,8.502244949E-3,2.478694916E-2
6.875627985E0,3.115314245E-2,1.800644398E-2,1.867389679E-2
6.880646943E0,3.481340408E-2,2.023458481E-2,1.259613037E-2
6.885665902E0,2.539762855E-2,1.890826225E-2,1.369667053E-2
6.890684860E0,3.256776929E-2,2.711737156E-2,1.597595215E-2
6.895703818E0,2.672216296E-2,2.684593201E-2,9.911537170E-3
6.900722777E0,1.499953866E-2,3.368473053E-2,1.813983917E-2
6.905741735E0,2.834796906E-2,4.178321362E-2,2.632522583E-2
6.910760693E0,4.735589027E-3,4.990339279E-2,8.342742920E-3
6.915779652E0,2.430081367E-4,3.782927990E-2,2.256965637E-2
6.920798610E0,2.190914750E-2,6.029236317E-2,1.175022125E-2
6.925817568E0,2.201572061E-2,5.773818493E-2,4.600524902E-3
6.930836527E0,3.514423966E-2,4.923295975E-2,-1.220703125E-4
6.935855485E0,4.101502895E-2,4.091393948E-2,-2.409934998E-3
6.940874443E0,2.315840125E-2,3.978681564E-2,-1.061153412E-2
6.945893402E0,2.442637086E-2,2.443516254E-2,-1.637077332E-2
6.950912360E0,3.163221478E-2,3.065645695E-2,-7.820129395E-3
6.955931318E0,3.286796808E-2,2.740561962E-2,-1.238250732E-2
6.960950277E0,3.050151467E-2,1.823437214E-2,-1.572418213E-2
6.965969235E0,3.296723962E-2,6.829261780E-3,-1.308822632E-2
6.970988193E0,3.425672650E-2,8.708953857E-3,-4.368686676E-2
6.976007152E0,2.372527122E-2,6.958603859E-3,-2.774047852E-2
6.981026110E0,2.644640207E-2,4.563331604E-4,-2.379798889E-2
6.986045068E0,2.435797453E-2,-9.540319443E-3,-2.344799042E-2
6.991064079E0,1.498341560E-2,-1.826179028E-2,-2.548027039E-2
6.996083245E0,8.145421743E-3,-1.387917995E-2,-4.942893982E-3
7.001102412E0,2.152204514E-2,-1.917338371E-2,-3.599166870E-3
7.006121579E0,3.715401888E-2,-2.098870277E-2,1.076698303E-2
7.011140745E0,3.362089396E-2,-1.934242249E-2,3.686141968E-2
7.016159912E0,5.392616987E-2,-3.447055817E-2,4.846668243E-2
7.021179079E0,5.985799432E-2,-3.180468082E-2,7.538318634E-2
7.026198245E0,5.516651273E-2,-9.107112885E-3,6.881523132E-2
7.031217412E0,3.521230817E-2,-1.155197620E-2,5.992698669E-2
7.036236579E0,3.818953037E-2,-1.164150238E-2,7.604312897E-2
7.041255745E0,4.948779941E-2,-1.659345627E-2,5.401611328E-2
7.046274912E0,1.788607240E-2,4.713535309E-3,5.118274689E-2
7.051294079E0,1.748195291E-2,5.788922310E-3,4.246520996E-2
7.056313245E0,4.107475281E-3,2.601647377E-2,-5.319595337E-3
7.061332412E0,-5.630493164E-3,2.141201496E-2,1.619720459E-2
7.066351579E0,-5.798101425E-3,4.203045368E-2,1.971244812E-3
7.071370745E0,-1.057997346E-2,5.553269386E-2,-5.245971680E-2
7.076389912E0,-1.749148965E-2,6.434011459E-2,-1.337013245E-1
7.081410850E0,-1.233768463E-2,7.296240330E-2,-2.107210159E-1
7.086432412E0,1.384451985E-2,5.885541439E-2,-2.087774277E-1
7.091451787E0,2.715948224E-2,5.882108212E-2,-1.084051132E-1
7.096470954E0,5.973106623E-2,2.872407436E-2,3.376388550E-2
7.101489964E0,7.985058427E-2,8.305311203E-4,1.105489731E-1
7.106508922E0,8.402389288E-2,-2.582430840E-2,1.119022369E-1
7.111527881E0,9.869229794E-2,-3.564143181E-2,9.309959412E-2
7.116546839E0,6.138879061E-2,-4.162347317E-2,2.464675903E-2
7.121565797E0,3.562703729E-2,-4.246640205E-2,-2.776145935E-2
7.126584756E0,1.704123616E-2,-4.426050186E-2,-8.092498779E-2
7.131603714E0,1.152515411E-2,-3.150236607E-2,-1.229524612E-1
7.136622672E0,2.084594965E-2,-4.833638668E-2,-1.195020676E-1
7.141641631E0,4.787066579E-2,-6.860411167E-2,-6.028938293E-2
7.146660589E0,4.926267266E-2,-5.674934387E-2,1.386833191E-2
7.151679547E0,6.808659434E-2,-6.071865559E-2,8.856868744E-2
7.156698506E0,7.425153255E-2,-6.260514259E-2,1.495437622E-1
7.161717464E0,8.538284898E-2,-6.257033348E-2,1.743154526E-1
7.166736422E0,9.302666783E-2,-3.443920612E-2,1.608219147E-1
7.171755381E0,8.183780313E-2,-5.868792534E-3,1.319150925E-1
7.176774339E0,6.871387362E-2,2.934515476E-2,9.965419769E-2
7.181793297E0,6.805494428E-2,7.234764099E-2,3.558254242E-2
7.186812256E0,4.881641269E-2,1.042902470E-1,-1.251029968E-2
7.191831214E0,1.921024919E-2,1.266355515E-1,-4.710578918E-2
7.196850172E0,-1.148539782E-2,1.289304495E-1,-9.204196930E-2
7.201869131E0,-1.129835844E-2,1.518985033E-1,-1.127700806E-1
7.206888089E0,-2.321642637E-2,1.538995504E-1,-1.165990829E-1
7.211907047E0,-3.640156984E-2,1.481753588E-1,-1.119756699E-1
7.216926006E0,-2.236595750E-2,1.431468725E-1,-7.522010803E-2
7.221944964E0,-1.681330800E-2,1.434724331E-1,-4.816341400E-2
7.226963922E0,-1.259893179E-2,1.204497814E-1,-2.363300323E-2
7.231982881E0,-5.052149296E-3,1.037619114E-1,3.102302551E-3
7.237001839E0,-1.073095202E-2,9.684050083E-2,3.438377380E-2
7.242020797E0,-1.283362508E-2,6.142556667E-2,4.402351379E-2
7.247039912E0,-5.511254072E-3,4.039776325E-2,6.067371368E-2
7.252059079E0,-5.354523659E-3,2.167773247E-2,7.001686096E-2
7.257078245E0,1.513764262E-2,6.339907646E-3,7.566070557E-2
7.262097412E0,2.844855189E-2,-1.274025440E-2,8.357810974E-2
7.267116579E0,4.286125302E-2,-2.369701862E-2,7.949161530E-2
7.272135745E0,3.815418482E-2,-4.430627823E-2,5.758476257E-2
7.277154912E0,5.375951529E-2,-5.672848225E-2,5.598735809E-2
7.282174079E0,5.258166790E-2,-6.205344200E-2,4.013061523E-2
7.287193245E0,6.340757012E-2,-6.617367268E-2,1.847076416E-2
7.292212412E0,5.396494269E-2,-7.980585098E-2,-1.831054688E-3
7.297231579E0,6.248793006E-2,-7.186257839E-2,-2.075576782E-2
7.302250745E0,4.473114014E-2,-7.697951794E-2,-3.713989258E-2
7.307269912E0,5.445456505E-2,-6.534266472E-2,-4.862022400E-2
7.312289079E0,4.746940732E-2,-5.133974552E-2,-4.811573029E-2
7.317308245E0,3.328961134E-2,-5.750405788E-2,-4.403305054E-2
7.322327412E0,4.764750600E-2,-2.909946442E-2,-4.353046417E-2
7.327346579E0,3.813043237E-2,-3.298401833E-2,-2.166461945E-2
7.332365745E0,3.930288553E-2,-3.069400787E-2,1.242637634E-3
7.337384912E0,3.562468290E-2,-2.504277229E-2,2.392101288E-2
7.342404079E0,3.903901577E-2,-3.963589668E-3,4.048061371E-2
7.347423245E0,3.868165612E-2,-3.306865692E-3,4.857444763E-2
7.352442412E0,5.131110549E-2,7.782697678E-3,5.536270142E-2
7.357461579E0,3.406292200E-2,1.035809517E-2,6.562995911E-2
7.362480745E0,3.358292580E-2,2.351617813E-2,4.730510712E-2
7.367499912E0,2.955114841E-2,2.811765671E-2,6.551742554E-3
7.372519079E0,8.910119534E-3,3.136527538E-2,1.834487915E-2
7.377538245E0,-2.272188663E-3,3.807961941E-2,2.645874023E-2
7.382557412E0,-6.295114756E-3,4.126489162E-2,2.383518219E-2
7.387576579E0,-1.495182514E-2,4.104864597E-2,1.889801025E-2
7.392595745E0,-2.349802852E-2,5.644595623E-2,-1.089000702E-2
7.397614912E0,-6.959170103E-3,4.834210873E-2,-6.053638458E-2
7.402634079E0,-1.392900944E-3,5.715787411E-2,-8.361244202E-2
7.407653245E0,9.937524796E-3,4.589951038E-2,-7.322597504E-2
7.412672412E0,1.164570451E-2,3.620231152E-2,-6.643390656E-2
7.417691579E0,2.760362625E-2,2.893805504E-2,-3.477287292E-2
7.422710745E0,5.662736297E-2,3.593921661E-2,-3.376960754E-3
7.427729912E0,5.835092068E-2,3.084397316E-2,2.802848816E-3
7.432749079E0,7.338926196E-2,2.451181412E-2,2.435588837E-2
7.437768245E0,7.074120641E-2,1.680397987E-2,3.025817871E-2
7.442787412E0,6.589451432E-2,5.692243576E-4,4.318428040E-2
7.447810016E0,6.362384558E-2,-2.690315247E-3,3.934574127E-2
7.452829183E0,4.357260466E-2,-6.139397621E-3,2.481269836E-2
7.457848350E0,4.980272055E-2,-7.364273071E-3,3.529548645E-2
7.462867516E0,3.106158972E-2,-1.609206200E-3,1.954555511E-2
7.467886579E0,3.149092197E-2,-3.102779388E-3,1.340866089E-2
7.472905537E0,2.821737528E-2,4.991531372E-3,-9.286880493E-3
7.477924495E0,9.515136480E-3,8.279919624E-3,-4.487991333E-3
7.482943454E0,2.050343156E-2,2.706122398E-2,2.841949463E-4
7.487962412E0,2.179554105E-2,4.232800007E-2,2.677917480E-3
7.492981370E0,2.520057559E-2,4.573833942E-2,2.287673950E-2
7.498000329E0,2.008298039E-2,3.621399403E-2,1.799964905E-2
7.503019287E0,1.493409276E-2,6.017661095E-2,2.031898499E-2
7.508038245E0,3.475022316E-2,5.082941055E-2,1.551914215E-2
7.513057204E0,1.634228230E-2,5.346262455E-2,8.390426636E-3
7.518076162E0,3.389307857E-2,6.204581261E-2,1.795387268E-2
7.523095120E0,3.244432807E-2,4.682779312E-2,2.744483948E-2
7.528114079E0,1.675239205E-2,2.927684784E-2,2.971649170E-2
7.533133037E0,2.019551396E-2,1.882910728E-2,3.075122833E-2
7.538151995E0,3.087565303E-2,1.075041294E-2,1.989173889E-2
7.543170954E0,3.795155883E-2,-1.045930386E-2,1.978206635E-2
7.548189912E0,3.915053606E-2,-1.852750778E-3,2.204513550E-2
7.553208870E0,4.980316758E-2,-3.498339653E-2,1.476669312E-2
7.558227829E0,3.659892082E-2,-2.511429787E-2,8.733749390E-3
7.563246787E0,3.898301721E-2,-4.627299309E-2,3.623962402E-4
7.568265745E0,5.680045485E-2,-3.167903423E-2,-1.625537872E-2
7.573284704E0,4.366835952E-2,-3.733444214E-2,-1.847648621E-2
7.578303662E0,4.597067833E-2,-3.814435005E-2,-4.204273224E-2
7.583322620E0,3.052121401E-2,-3.054773808E-2,-2.621746063E-2
7.588341579E0,3.775084019E-2,-2.060091496E-2,-2.476024628E-2
7.593360537E0,1.636549830E-2,-1.420664787E-2,-1.498985291E-2
7.598379495E0,2.243643999E-2,-2.669560909E-2,-1.120567322E-2
7.603398454E0,2.248278260E-2,-1.412522793E-2,-1.457118988E-2
7.608417412E0,1.056817174E-2,-1.596677303E-2,-2.148628235E-2
7.613436370E0,4.695832729E-3,-1.653277874E-2,-2.951622009E-2
7.618455433E0,-8.196443319E-3,-4.059553146E-3,-2.442264557E-2
7.623474600E0,-2.020597458E-3,-9.059906006E-5,-2.651405334E-2
7.628493766E0,1.133656502E-2,-1.403725147E-2,-4.857063293E-3
7.633512933E0,1.286447048E-2,-7.727265358E-3,-4.749298096E-3
7.638532100E0,1.321324706E-2,-3.994345665E-3,2.025699615E-2
7.643551266E0,1.237684488E-2,2.001762390E-3,3.198051453E-2
7.648570433E0,3.184884787E-2,4.311084747E-3,3.528690338E-2
7.653589600E0,3.325715661E-2,1.483523846E-2,6.494522095E-3
7.658608766E0,4.658895731E-2,1.449799538E-2,4.042625427E-3
7.663627933E0,4.436403513E-2,3.314256668E-2,8.730888367E-3
7.668647100E0,3.620189428E-2,4.208719730E-2,7.434844971E-3
7.673666266E0,3.757435083E-2,4.156577587E-2,9.731292725E-3
7.678685433E0,3.185307980E-2,3.984379768E-2,1.321792603E-3
7.683704600E0,2.246233821E-2,3.461587429E-2,3.669738770E-3
7.688723766E0,1.666235924E-2,4.377663136E-2,1.432514191E-2
7.693742933E0,2.629470825E-2,4.341483116E-2,1.302814484E-2
7.698762100E0,1.800426841E-2,4.780626297E-2,1.530361176E-2
7.703781266E0,2.056431770E-2,3.439354897E-2,3.063011169E-2
7.708800433E0,2.428218722E-2,3.185021877E-2,3.397083282E-2
7.713819600E0,2.437984943E-2,4.589939117E-2,2.421569824E-2
7.718838766E0,2.090504766E-2,4.433453083E-2,3.827095032E-2
7.723857933E0,1.976698637E-2,2.968633175E-2,2.726936340E-2
7.728877100E0,2.098184824E-2,2.944278717E-2,2.111339569E-2
7.733896266E0,2.816081047E-2,2.676534653E-2,1.974773407E-2
7.738915433E0,2.345687151E-2,1.347303391E-2,2.671337128E-2
7.743934600E0,2.350246906E-2,2.868247032E-2,1.223278046E-2
7.748953766E0,3.188541532E-2,2.836811543E-2,-2.120971680E-3
7.753972933E0,2.598863840E-2,1.264762878E-2,-1.990890503E-2
7.758992100E0,2.607682347E-2,1.259529591E-2,-1.616096497E-2
7.764011266E0,3.686901927E-2,6.570458412E-3,-3.144454956E-2
7.769030433E0,3.452569246E-2,1.018226147E-2,-3.589820862E-2
7.774049600E0,2.633497119E-2,-5.156517029E-3,-4.860877991E-2
7.779068766E0,2.887400985E-2,-1.324057579E-2,-6.239986420E-2
7.784087933E0,2.549439669E-2,-8.149981499E-3,-4.520034790E-2
7.789107100E0,1.484641433E-2,-1.023590565E-2,-2.815246582E-2
7.794126266E0,2.807277441E-2,-1.002299786E-2,-4.139900208E-3
7.799145433E0,2.924895287E-2,-2.654349804E-2,3.270721436E-2
7.804164600E0,4.228129983E-2,-3.466904163E-2,5.142974854E-2
7.809186110E0,6.004828215E-2,-2.264893055E-2,7.591438293E-2
7.814206631E0,5.496102571E-2,-3.232574463E-2,8.589935303E-2
7.819225589E0,5.824679136E-2,-3.380060196E-2,7.083511353E-2
7.824244547E0,5.932050943E-2,-3.183996677E-2,6.299972534E-2
7.829263506E0,6.065121293E-2,-2.639997005E-2,6.234836578E-2
7.834282464E0,4.182037711E-2,-1.633465290E-2,6.406211853E-2
7.839301422E0,4.225316644E-2,-9.850144386E-3,3.728675842E-2
7.844320381E0,2.497535944E-2,9.703040123E-3,1.312637329E-2
7.849339339E0,4.479587078E-3,2.018451691E-3,-4.845619202E-3
7.854358297E0,-8.765995502E-3,2.901721001E-2,2.297401428E-3
7.859377256E0,-1.456373930E-2,4.053568840E-2,8.235931396E-3
7.864396214E0,-2.247262001E-2,5.683279037E-2,-4.875850677E-2
7.869415172E0,-6.281435490E-3,4.348278046E-2,-1.266021729E-1
7.874434131E0,-3.188639879E-3,5.744910240E-2,-1.776971817E-1
7.879453089E0,2.440094948E-2,5.452525616E-2,-1.536226273E-1
7.884472047E0,2.339521050E-2,3.942453861E-2,-5.981063843E-2
7.889491006E0,4.483053088E-2,2.068221569E-2,6.280994415E-2
7.894509964E0,5.726817250E-2,1.903772354E-3,8.700752258E-2
7.899528922E0,8.241897821E-2,-2.520155907E-2,5.639553070E-2
7.904547881E0,8.602219820E-2,-3.178739548E-2,1.542186737E-2
7.909566839E0,6.882834435E-2,-1.082277298E-2,-1.446819305E-2
7.914585797E0,2.874416113E-2,-5.106329918E-3,-7.017135620E-2
7.919604756E0,1.619261503E-2,-2.519834042E-2,-1.028327942E-1
7.924623714E0,-1.099646091E-3,-2.342116833E-2,-8.653354645E-2
7.929642672E0,3.467649221E-3,-3.692007065E-2,-8.698368073E-2
7.934661631E0,1.025626063E-2,-3.720974922E-2,-4.825115204E-2
7.939680589E0,4.243749380E-2,-4.474663734E-2,1.508235931E-2
7.944699547E0,5.736014247E-2,-5.478179455E-2,6.957054138E-2
7.949718506E0,7.287016511E-2,-6.878793240E-2,1.449022293E-1
7.954737464E0,8.878579736E-2,-7.615315914E-2,1.815204620E-1
7.959756422E0,9.532016516E-2,-6.510138512E-2,2.058448792E-1
7.964775433E0,1.079619378E-1,-3.581845760E-2,1.693019867E-1
7.969794600E0,8.748188615E-2,-1.214504242E-3,1.187543869E-1
7.974813766E0,8.771216869E-2,2.909123898E-2,7.211494446E-2
7.979832933E0,5.271810293E-2,5.196666718E-2,2.125740051E-3
7.984852100E0,2.644586563E-2,9.614670277E-2,-8.030891418E-2
7.989871266E0,7.458686829E-3,1.130502224E-1,-1.263675690E-1
7.994890433E0,-9.274065495E-3,1.268330812E-1,-1.541318893E-1
7.999909600E0,-2.610090375E-2,1.291912794E-1,-1.578207016E-1
8.004928766E0,-8.584052324E-3,1.453677416E-1,-1.340341568E-1
8.009947933E0,-3.159418702E-2,1.573739052E-1,-1.126823425E-1
8.014967100E0,-1.062053442E-2,1.604433060E-1,-8.426284790E-2
8.019986266E0,-2.318668365E-2,1.367330551E-1,-3.698444366E-2
8.025005433E0,-1.688936353E-2,1.337476969E-1,-6.661415100E-3
8.030024600E0,-2.506279945E-2,1.132036448E-1,2.344512939E-2
8.035043766E0,-1.434001327E-2,1.070914268E-1,2.955627441E-2
8.040062933E0,-1.668325067E-2,8.194565773E-2,7.002830505E-2
8.045082100E0,-2.259701490E-3,6.271255016E-2,5.432891846E-2
8.050101266E0,1.814806461E-2,4.455769062E-2,6.483078003E-2
8.055120433E0,2.070394158E-2,1.899445057E-2,8.466339111E-2
8.060139600E0,6.710857153E-3,-4.365682602E-3,6.983184814E-2
8.065158766E0,2.957332134E-2,-1.351869106E-2,6.813621521E-2
8.070177933E0,3.079241514E-2,-5.837643147E-2,5.335998535E-2
8.075197100E0,4.035708308E-2,-6.866550446E-2,3.391551971E-2
8.080216266E0,4.397785664E-2,-9.683048725E-2,7.482528687E-3
8.085235433E0,3.338408470E-2,-9.993541241E-2,2.620697021E-3
8.090254600E0,3.592169285E-2,-1.041244268E-1,-1.405715942E-2
8.095273766E0,3.019765019E-2,-1.283813715E-1,-3.532791138E-2
8.100292933E0,2.911129594E-2,-1.191573143E-1,-3.149127960E-2
8.105312100E0,2.205789089E-2,-1.051182747E-1,-2.409744263E-2
8.110331266E0,2.326300740E-2,-1.148500443E-1,-3.099727631E-2
8.115350433E0,2.668946981E-2,-9.954273701E-2,-8.161544800E-3
8.120369600E0,3.843316436E-2,-8.320105076E-2,-1.519775391E-2
8.125388766E0,4.403638840E-2,-5.277216434E-2,-2.001762390E-3
8.130407933E0,4.958796501E-2,-3.206753731E-2,7.529258728E-3
8.135427100E0,4.787632823E-2,-9.260416031E-3,1.814270020E-2
8.140446266E0,4.854825139E-2,6.145238876E-3,3.933525085E-2
8.145465433E0,4.547691345E-2,1.181221008E-2,4.014110565E-2
8.150484600E0,6.025543809E-2,2.681064606E-2,4.210662842E-2
8.155503766E0,5.221536756E-2,4.745781422E-2,1.315307617E-2
8.160524027E0,2.995797992E-2,6.082081795E-2,1.768112183E-2
8.165545589E0,3.168460727E-2,7.034337521E-2,-2.297019958E-2
8.170564860E0,2.282810211E-2,8.214831352E-2,-1.223373413E-2
8.175583818E0,1.287814975E-2,9.281766415E-2,1.743698120E-2
8.180602777E0,-1.599112153E-2,8.339309692E-2,1.128101349E-2
8.185621735E0,-3.263470531E-2,7.434737682E-2,-2.087879181E-2
8.190640693E0,-1.355388761E-2,6.569743156E-2,-7.289218903E-2
8.195659652E0,-1.131534576E-2,6.944096088E-2,-9.589385986E-2
8.200678610E0,9.721904993E-3,7.104730606E-2,-1.103496552E-1
8.205697568E0,1.380851865E-2,7.167315483E-2,-1.044664383E-1
8.210716527E0,3.101158142E-2,5.594217777E-2,-6.414985657E-2
8.215735485E0,3.508722782E-2,4.031693935E-2,-4.435253143E-2
8.220754443E0,4.520949721E-2,2.115285397E-2,7.316589355E-3
8.225773402E0,4.357340932E-2,1.382923126E-2,4.071712494E-2
8.230792360E0,6.693422794E-2,-2.114653587E-3,8.089256287E-2
8.235811318E0,7.018005848E-2,-4.090309143E-3,9.335994720E-2
8.240830277E0,7.004216313E-2,-2.887356281E-2,7.481193542E-2
8.245849235E0,6.182867289E-2,-3.243839741E-2,6.348133087E-2
8.250868193E0,5.026844144E-2,-3.638160229E-2,4.860782623E-2
8.255887152E0,5.310657620E-2,-3.221106529E-2,4.212760925E-2
8.260906110E0,4.398295283E-2,-2.949464321E-2,3.209304810E-2
8.265925068E0,5.262827873E-2,-1.266372204E-2,-4.396438599E-4
8.270944027E0,4.205319285E-2,5.632638931E-4,-7.757186890E-3
8.275962985E0,3.509131074E-2,-1.122665405E-2,-1.976013184E-2
8.280981943E0,2.437508106E-2,-4.958748817E-3,-5.524635315E-3
8.286000902E0,2.421265841E-2,3.590369225E-2,8.626937866E-3
8.291019860E0,2.402305603E-2,3.747904301E-2,1.202011108E-2
8.296038818E0,1.663056016E-2,5.113112926E-2,1.542377472E-2
8.301057777E0,1.641455293E-2,6.478345394E-2,1.407337189E-2
8.306076735E0,3.096103668E-3,5.588340759E-2,1.156806946E-2
8.311095693E0,4.683732986E-4,5.908489227E-2,6.734848022E-3
8.316114652E0,9.797751904E-3,7.536923885E-2,6.703376770E-3
8.321133714E0,2.460211515E-3,7.253587246E-2,1.854801178E-2
8.326152881E0,2.349823713E-3,6.969964504E-2,2.672767639E-2
8.331172047E0,3.366440535E-3,5.380487442E-2,2.414894104E-2
8.336191214E0,1.874265075E-2,3.326714039E-2,2.040290833E-2
8.341210381E0,1.743161678E-2,1.758086681E-2,3.685760498E-2
8.346229547E0,2.933603525E-2,-4.113554955E-3,4.008293152E-2
8.351248714E0,2.940496802E-2,-3.100991249E-3,3.141021729E-2
8.356267881E0,2.729600668E-2,-1.649689674E-2,2.159976959E-2
8.361287047E0,2.985212207E-2,-3.332316875E-2,2.018070221E-2
8.366306214E0,3.837084770E-2,-3.577828407E-2,-8.532524109E-3
8.371325381E0,3.615713120E-2,-3.710436821E-2,-1.565074921E-2
8.376344547E0,3.978270292E-2,-4.667592049E-2,-1.795578003E-2
8.381363714E0,3.493028879E-2,-5.726337433E-2,-1.904106140E-2
8.386382881E0,4.789713025E-2,-3.924548626E-2,-2.842426300E-2
8.391402047E0,2.994188666E-2,-2.724945545E-2,-3.652858734E-2
8.396421214E0,2.273121476E-2,-2.825582027E-2,-3.978824615E-2
8.401440381E0,3.466424346E-2,-4.234671593E-3,-1.688385010E-2
8.406459547E0,6.069123745E-3,-2.202653885E-2,-1.436614990E-2
8.411478714E0,2.627372742E-4,-2.071380615E-2,-8.315086365E-3
8.416497881E0,1.953583956E-2,4.262089729E-3,-1.657009125E-2
8.421517047E0,1.844900846E-2,1.357018948E-2,-8.142471313E-3
8.426536214E0,7.921367884E-3,1.080691814E-2,-1.286697388E-2
8.431555381E0,8.267074823E-3,1.872074604E-2,-1.043033600E-2
8.436574547E0,8.638411760E-3,5.010247231E-3,-2.112388611E-3
8.441593714E0,1.619392633E-2,2.456593513E-2,7.308006287E-3
8.446612881E0,3.214696050E-2,2.844762802E-2,3.580093384E-3
8.451632047E0,3.256049752E-2,2.285337448E-2,-1.049041748E-4
8.456651214E0,2.945008874E-2,3.155088425E-2,2.179145813E-3
8.461670381E0,4.058352113E-2,2.360987663E-2,3.265380859E-3
8.466689547E0,3.965541720E-2,2.164423466E-2,-3.975868225E-3
8.471708714E0,2.324780822E-2,2.565228939E-2,3.091812134E-3
8.476727881E0,2.946683764E-2,3.690803051E-2,-1.124095917E-2
8.481747047E0,3.790590167E-2,4.815959930E-2,-6.443977356E-3
8.486766214E0,1.655074954E-2,3.327882290E-2,1.850605011E-2
8.491785381E0,2.968496084E-2,3.280591965E-2,1.357269287E-2
8.496804547E0,9.477078915E-3,4.061770439E-2,3.928184509E-3
8.501823714E0,1.207035780E-2,2.459847927E-2,2.403831482E-2
8.506842881E0,2.286714315E-2,1.473689079E-2,2.144145966E-2
8.511862047E0,1.811873913E-2,2.506375313E-2,1.054000854E-2
8.516881214E0,1.461714506E-2,4.112374783E-2,3.888320923E-2
8.521900381E0,4.159867764E-3,2.142131329E-2,1.238536835E-2
8.526919547E0,1.145821810E-2,6.477594376E-3,3.237152100E-2
8.531938714E0,5.655080080E-3,1.308977604E-2,1.659011841E-2
8.536957881E0,1.764318347E-2,1.128566265E-2,2.585697174E-2
8.541977047E0,9.299039841E-3,9.535074234E-3,-8.871078491E-3
8.546996214E0,1.303651929E-2,7.811784744E-3,-3.380489349E-2
8.552015381E0,2.386009693E-2,1.448833942E-2,-1.459407806E-2
8.557034547E0,1.679879427E-2,4.704833031E-3,-1.924324036E-2
8.562053714E0,2.169141173E-2,1.756095886E-2,-1.791572571E-2
8.567072881E0,3.363671899E-2,7.750511169E-3,-2.847290039E-2
8.572092047E0,3.237780929E-2,-1.025044918E-2,-3.418827057E-2
8.577111214E0,3.001174331E-2,-6.770372391E-3,-8.996009827E-3
8.582130381E0,2.645024657E-2,9.726762772E-3,5.298614502E-3
8.587149547E0,2.777966857E-2,3.544330597E-3,-3.074645996E-3
8.592168714E0,2.678775787E-2,-7.335066795E-3,1.236629486E-2
8.597187881E0,3.407746553E-2,3.292918205E-3,2.293968201E-2
8.602207047E0,4.123318195E-2,-1.229310036E-2,9.676933289E-3
8.607226214E0,4.719585180E-2,-1.951670647E-2,2.262878418E-2
8.612245381E0,4.123020172E-2,-8.846282959E-3,2.241992950E-2
8.617264547E0,4.476192594E-2,-5.505442619E-3,6.753921509E-3
8.622283714E0,3.160178661E-2,4.856705666E-3,2.919292450E-2
8.627302881E0,5.054756999E-2,1.272058487E-2,2.294445038E-2
8.632322047E0,5.626979470E-2,-4.345297813E-3,1.794624329E-2
8.637341214E0,4.171139002E-2,9.568452835E-3,1.061058044E-2
8.642360381E0,4.634267092E-2,1.380586624E-2,6.887435913E-3
8.647379547E0,4.620820284E-2,1.444935799E-2,8.220672607E-4
8.652398714E0,4.142087698E-2,1.033830643E-2,-1.629829407E-3
8.657417881E0,4.144507647E-2,2.166903019E-2,-1.949691772E-2
8.662437047E0,3.086912632E-2,1.156115532E-2,-1.346492767E-2
8.667456214E0,1.924782991E-2,1.591074467E-2,-1.220417023E-2
8.672475381E0,2.073356509E-2,2.137458324E-2,-2.046108246E-2
8.677494547E0,2.462685108E-2,1.854574680E-2,-3.457069397E-2
8.682513714E0,2.133077383E-2,2.296233177E-2,-4.498481750E-2
8.687532881E0,1.799261570E-2,2.254116535E-2,-2.445697784E-2
8.692552047E0,9.805142879E-3,2.584898472E-2,-2.069473267E-2
8.697571214E0,2.060061693E-2,5.348682404E-3,-1.222610474E-2
8.702590381E0,3.120493889E-2,7.540941238E-3,5.660057068E-3
8.707609547E0,2.387872338E-2,-3.431439400E-3,2.456665039E-2
8.712628714E0,3.563493490E-2,-8.379340172E-3,3.500556946E-2
8.717647881E0,4.493236542E-2,3.207921982E-3,6.789112091E-2
8.722667047E0,5.436328053E-2,-3.245472908E-3,7.080364227E-2
8.727686214E0,3.533688188E-2,-2.138614655E-4,6.774806976E-2
8.732705381E0,4.752394557E-2,8.626103401E-3,5.046081543E-2
8.737724547E0,3.361466527E-2,1.029157639E-2,4.875850677E-2
8.742743714E0,4.119437933E-2,1.092147827E-2,1.148796082E-2
8.747762881E0,3.931576014E-2,2.816367149E-2,-1.726150513E-3
8.752782047E0,3.163555264E-2,3.481030464E-2,-2.910614014E-3
8.757801214E0,2.640944719E-2,4.279541969E-2,1.890182495E-3
8.762820381E0,2.147999406E-2,5.200171471E-2,-2.299785614E-2
8.767839547E0,1.234564185E-2,6.235861778E-2,-8.682918549E-2
8.772858714E0,3.686666489E-3,6.066787243E-2,-1.299495697E-1
8.777877881E0,1.292237639E-2,5.160140991E-2,-1.264629364E-1
8.782897047E0,3.361493349E-3,4.584467411E-2,-3.525161743E-2
8.787916214E0,1.138043404E-2,2.441835403E-2,1.002016068E-1
8.792935381E0,2.416628599E-2,-1.361823082E-2,1.240510941E-1
8.797954547E0,5.025747418E-2,-1.823818684E-2,4.678440094E-2
8.802973714E0,5.597579479E-2,-1.428353786E-2,-2.737903595E-2
8.807992881E0,5.664351583E-2,-5.312919617E-3,-6.996726990E-2
8.813012047E0,2.310782671E-2,-1.718056202E-2,-1.286993027E-1
8.818031214E0,-7.253736258E-3,-2.348184586E-3,-1.560087204E-1
8.823050381E0,-2.914491296E-2,5.726337433E-3,-1.462430954E-1
8.828069547E0,-3.440186381E-2,-1.564013958E-2,-1.116209030E-1
8.833088714E0,-2.127659321E-2,-2.715432644E-2,-5.947017670E-2
8.838107881E0,2.042844892E-2,-4.705476761E-2,1.952457428E-2
8.843127047E0,4.577401280E-2,-6.581592560E-2,9.072113037E-2
8.848146214E0,7.292735577E-2,-6.600260735E-2,1.600570679E-1
8.853165381E0,7.674768567E-2,-6.665825844E-2,1.955089569E-1
8.858184547E0,9.383669496E-2,-7.049691677E-2,2.222099304E-1
8.863203714E0,1.074536443E-1,-5.009961128E-2,2.022619247E-1
8.868222881E0,1.045644879E-1,-3.048205376E-2,1.716861725E-1
8.873242047E0,9.244349599E-2,-1.387643814E-2,1.104211807E-1
8.878261214E0,6.400957704E-2,-1.365780830E-3,6.503295898E-2
8.883282620E0,4.665109515E-2,1.098740101E-2,-2.535820007E-3
8.888299912E0,3.066375852E-2,2.808845043E-2,-3.271865845E-2
8.893317204E0,1.227051020E-2,4.307985306E-2,-5.426883698E-2
8.898334547E0,-1.418888569E-4,6.670892239E-2,-6.843471527E-2
8.903352100E0,-1.977306604E-2,8.957016468E-2,-7.525157928E-2
8.908369860E0,-9.728342295E-3,9.266972542E-2,-8.664989471E-2
8.913387829E0,-8.399128914E-3,9.993529320E-2,-5.629920959E-2
8.918406006E0,-1.317840815E-2,1.077798605E-1,-4.626750946E-2
8.923424443E0,1.634788513E-2,1.194550991E-1,-1.252079010E-2
8.928443297E0,4.086017609E-3,1.194880009E-1,3.199577332E-3
8.933462516E0,-1.040303707E-2,1.279622316E-1,1.525306702E-2
8.938481943E0,-2.132654190E-3,1.232855320E-1,1.414680481E-2
8.943501579E0,7.325619459E-3,1.209210157E-1,2.846622467E-2
8.948521422E0,1.562526822E-2,9.697628021E-2,2.838134766E-2
8.953541475E0,1.693242788E-2,8.732151985E-2,3.539848328E-2
8.958561735E0,1.121959090E-2,6.209230423E-2,2.451133728E-2
8.963582152E0,2.942666411E-2,4.035007954E-2,4.170417786E-3
8.968602568E0,4.043287039E-2,2.816891670E-2,5.347251892E-3
8.973622985E0,4.426303506E-2,1.012802124E-2,-1.797676086E-3
8.978643402E0,4.808765650E-2,-2.682566643E-2,-3.263854980E-2
8.983663610E0,5.303779244E-2,-2.907454967E-2,-5.610656738E-2
8.988683089E0,5.917617679E-2,-4.313337803E-2,-5.681324005E-2
8.993702256E0,4.498210549E-2,-6.160628796E-2,-6.934928894E-2
8.998721370E0,3.679311275E-2,-7.381081581E-2,-6.987667084E-2
9.003740329E0,3.691181540E-2,-8.105897903E-2,-4.901409149E-2
9.008759287E0,3.455924988E-2,-8.219218254E-2,-2.830791473E-2
9.013778245E0,2.628266811E-2,-8.690392971E-2,-1.015377045E-2
9.018797204E0,2.508899570E-2,-9.522366524E-2,1.851463318E-2
9.023816162E0,2.623468637E-2,-8.574044704E-2,5.286407471E-2
9.028835120E0,4.036754370E-2,-7.649040222E-2,4.653549194E-2
9.033854079E0,2.468451858E-2,-6.038546562E-2,7.464694977E-2
9.038873037E0,2.558857203E-2,-7.550871372E-2,8.348274231E-2
9.043891995E0,2.400919795E-2,-4.324376583E-2,8.270263672E-2
9.048910954E0,1.993581653E-2,-2.687168121E-2,6.764411926E-2
9.053929912E0,2.059116960E-2,-7.343053818E-3,5.503082275E-2
9.058948870E0,2.589991689E-2,9.533047676E-3,4.249858856E-2
9.063967829E0,2.992999554E-2,2.861380577E-2,1.107025146E-2
9.068986787E0,2.096018195E-2,3.914844990E-2,-3.554058075E-2
9.074005745E0,1.088356972E-2,4.733765125E-2,-4.137802124E-2
9.079024704E0,8.023262024E-3,6.402301788E-2,-2.456378937E-2
9.084043662E0,-1.735576987E-2,8.683824539E-2,-2.444553375E-2
9.089062620E0,-1.864156127E-2,8.484947681E-2,-2.782726288E-2
9.094081579E0,-2.223721147E-2,8.931219578E-2,-5.601406097E-2
9.099100537E0,2.629667521E-3,8.817505836E-2,-1.123886108E-1
9.104119495E0,-4.837512970E-3,7.661890984E-2,-1.124534607E-1
9.109138454E0,-6.253927946E-3,6.421244144E-2,-1.100978851E-1
9.114157412E0,6.606221199E-3,6.402754784E-2,-8.278560638E-2
9.119176370E0,1.223331690E-2,3.771281242E-2,-4.026985168E-2
9.124195329E0,2.025666833E-2,1.979792118E-2,1.611518860E-2
9.129214287E0,4.374819994E-2,1.474499702E-2,7.078170776E-2
9.134233245E0,5.646157265E-2,7.101655006E-3,8.102512360E-2
9.139252204E0,7.753017545E-2,-1.859188080E-2,8.756828308E-2
9.144271162E0,7.246333361E-2,-2.071106434E-2,6.193923950E-2
9.149290172E0,7.232338190E-2,-3.744149208E-2,6.376075745E-2
9.154309339E0,6.164297462E-2,-4.721271992E-2,6.788825989E-2
9.159328506E0,5.827125907E-2,-2.859210968E-2,2.802848816E-2
9.164347672E0,5.252856016E-2,-1.747786999E-2,2.169609070E-2
9.169366839E0,5.378910899E-2,-2.192986012E-2,9.467124939E-3
9.174386006E0,3.717947006E-2,-2.636754513E-2,6.832122803E-3
9.179405172E0,2.174559236E-2,9.642243385E-3,-4.087448120E-3
9.184424339E0,4.185467958E-2,9.905934334E-3,5.288124084E-3
9.189443506E0,3.560972214E-2,3.167533875E-2,1.817226410E-2
9.194462672E0,3.764981031E-2,2.377736568E-2,1.436328888E-2
9.199481839E0,2.063325047E-2,3.615319729E-2,3.076934814E-2
9.204501006E0,9.585946798E-3,6.053924561E-2,2.096366882E-2
9.209520172E0,9.250074625E-3,6.573295593E-2,1.598739624E-2
9.214539339E0,2.317205071E-2,6.864845753E-2,2.413749695E-2
9.219558506E0,2.628237009E-3,5.851972103E-2,9.673118591E-3
9.224577672E0,-1.544699073E-2,5.917227268E-2,3.640174866E-3
9.229596839E0,1.240670681E-3,5.268025398E-2,1.309299469E-2
9.234616006E0,8.162647486E-3,6.531596184E-2,1.179313660E-2
9.239635172E0,1.866430044E-2,4.221761227E-2,5.754470825E-3
9.244654339E0,3.265175223E-2,2.634263039E-2,1.755714417E-2
9.249673506E0,3.590017557E-2,3.311717510E-2,1.382350922E-2
9.254692672E0,4.388704896E-2,1.730954647E-2,3.006935120E-3
9.259711839E0,4.235261679E-2,4.043340683E-3,-1.127624512E-2
9.264731006E0,4.446277022E-2,6.316781044E-3,-1.712608337E-2
9.269750172E0,4.063186049E-2,-1.032817364E-2,-3.478336334E-2
9.274769339E0,3.803429008E-2,-1.725041866E-2,-1.310062408E-2
9.279788506E0,4.260382056E-2,-2.640712261E-2,-1.413536072E-2
9.284807672E0,4.234829545E-2,-4.854571819E-2,-2.466201782E-2
9.289826839E0,4.683449864E-2,-2.531516552E-2,-1.015758514E-2
9.294846006E0,4.542693496E-2,-2.355742455E-2,-1.831054688E-2
9.299865172E0,4.152965546E-2,-2.656066418E-2,1.277542114E-2
9.304884339E0,2.711686492E-2,-3.664791584E-2,1.274585724E-2
9.309903506E0,3.187903762E-2,-3.247141838E-2,1.745319366E-2
9.314922672E0,2.820518613E-2,-2.725613117E-2,3.990459442E-2
9.319941839E0,2.095890045E-2,-8.032679558E-3,-4.347801208E-3
9.324961006E0,1.154059172E-2,-1.406347752E-2,3.976821899E-3
9.329980172E0,9.257048368E-3,2.409100533E-3,6.276130676E-3
9.334999339E0,1.655682921E-2,9.133934975E-3,6.161689758E-3
9.340018506E0,1.313081384E-2,-7.948875427E-4,-1.294040680E-2
9.345037672E0,1.704025269E-2,-1.273036003E-3,-5.784988403E-3
9.350056839E0,2.089560032E-2,-4.104733467E-3,-9.370803833E-3
9.355076006E0,2.234846354E-2,4.981040955E-3,-1.410865784E-2
9.360095172E0,3.804188967E-2,8.143782616E-3,-2.171516418E-3
9.365114339E0,4.289478064E-2,1.373136044E-2,-8.126258850E-3
9.370133506E0,3.111219406E-2,1.226282120E-2,-8.074760437E-3
9.375152672E0,2.058604360E-2,1.085603237E-2,-5.640029907E-3
9.380171839E0,4.092404246E-2,2.146244049E-2,-1.270294189E-2
9.385191006E0,4.088664055E-2,2.252411842E-2,-7.827758789E-3
9.390210172E0,3.474020958E-2,2.236557007E-2,1.124095917E-2
9.395229339E0,2.628833055E-2,2.807915211E-2,8.771896362E-3
9.400248506E0,2.613985538E-2,2.662229538E-2,4.193305969E-2
9.405267672E0,7.126748562E-3,3.108763695E-2,3.089618683E-2
9.410286839E0,2.624493837E-2,3.302645683E-2,2.586269379E-2
9.415306006E0,3.708004951E-3,3.369760513E-2,2.442359924E-2
9.420325172E0,2.284896374E-2,2.850341797E-2,1.113700867E-2
9.425344339E0,1.695537567E-2,3.397428989E-2,1.514434814E-3
9.430363506E0,1.349228621E-2,3.591382504E-2,1.216602325E-2
9.435382672E0,2.664113045E-2,2.235770226E-2,3.724098206E-3
9.440401839E0,3.140810132E-2,2.680885792E-2,2.493858337E-3
9.445421006E0,2.785584331E-2,3.358364105E-2,4.832267761E-3
9.450440172E0,2.423068881E-2,2.498459816E-2,-7.075309753E-3
9.455459339E0,2.536186576E-2,1.767170429E-2,-1.072883606E-3
9.460478506E0,2.648600936E-2,2.707743645E-2,-8.172035217E-3
9.465497672E0,2.646163106E-2,1.153755188E-2,-4.513740540E-3
9.470516839E0,3.121963143E-2,1.268374920E-2,2.899169922E-4
9.475536006E0,3.596121073E-2,9.097933769E-3,-6.812095642E-3
9.480555172E0,2.528193593E-2,9.052157402E-3,-3.177642822E-3
9.485574339E0,2.423331141E-2,-5.065202713E-4,1.823139191E-2
9.490593506E0,1.961210370E-2,-6.563782692E-3,6.195068359E-3
9.495612672E0,1.157057285E-2,-1.846778393E-2,1.563835144E-2
9.500631839E0,3.319340944E-2,5.700588226E-4,1.668739319E-2
9.505651006E0,2.505058050E-2,-4.336953163E-3,4.663467407E-3
9.510670172E0,2.284187078E-2,6.273746490E-3,-3.692626953E-3
9.515689339E0,2.902039886E-2,-9.403228760E-4,2.282142639E-3
9.520708506E0,3.508666158E-2,2.617239952E-3,-7.224082947E-3
9.525727672E0,8.993983269E-3,4.933357239E-3,-1.784420013E-2
9.530746839E0,3.886613250E-2,2.517223358E-3,-1.293754578E-2
9.535766006E0,4.345756769E-2,1.322495937E-2,-2.468585968E-2
9.540785172E0,2.787190676E-2,1.208448410E-2,-1.138591766E-2
9.545804339E0,4.571259022E-2,5.019187927E-3,-2.075004578E-2
9.550823506E0,3.611826897E-2,4.117488861E-4,-8.662223816E-3
9.555842672E0,3.016859293E-2,-1.819729805E-3,1.162815094E-2
9.560861839E0,3.023213148E-2,1.138675213E-2,1.275444031E-2
9.565881006E0,2.559316158E-2,9.038567543E-3,9.122848511E-3
9.570900172E0,3.515669703E-2,1.371836662E-2,3.636169434E-2
9.575919339E0,4.349571466E-2,1.723527908E-3,2.775764465E-2
9.580938506E0,3.040027618E-2,1.124989986E-2,2.160930634E-2
9.585957672E0,2.571099997E-2,2.825975418E-3,6.771087646E-5
9.590976839E0,3.543210030E-2,8.718013763E-3,-7.044792175E-3
9.595996006E0,1.416903734E-2,-3.225088120E-3,9.648323059E-3
9.601015172E0,2.272140980E-2,7.438182831E-3,7.438659668E-5
9.606034339E0,1.574662328E-2,2.512204647E-2,4.822731018E-3
9.611053506E0,1.480874419E-2,1.417946815E-2,1.190948486E-2
9.616072672E0,3.036645055E-2,6.879806519E-3,1.180839539E-2
9.621091839E0,2.913302183E-2,1.394879818E-2,1.527786255E-2
9.626111006E0,1.714080572E-2,5.512356758E-3,1.634025574E-2
9.631130172E0,3.738674521E-2,2.672493458E-2,2.093791962E-2
9.636149339E0,2.893695235E-2,2.169501781E-2,3.381729126E-2
9.641168506E0,2.301108837E-2,5.958199501E-3,2.639865875E-2
9.646187672E0,2.790844440E-2,2.228963375E-2,8.339881897E-3
9.651206839E0,2.568638325E-2,6.485104561E-3,-9.556770325E-3
9.656226006E0,2.350848913E-2,1.098060608E-2,-2.612018585E-2
9.661245172E0,1.899108291E-2,3.538727760E-3,-4.492378235E-2
9.666264339E0,1.456165314E-2,1.638901234E-2,-3.269577026E-2
9.671283506E0,2.949506044E-3,2.092611790E-2,-2.173900604E-2
9.676302672E0,1.275351644E-2,1.474094391E-2,-1.087760925E-2
9.681321839E0,8.132487535E-3,1.095497608E-2,-1.554584503E-2
9.686341006E0,1.884496212E-2,8.402347565E-3,1.780986786E-2
9.691360172E0,5.308106542E-2,-7.236003876E-3,1.882266998E-2
9.696379339E0,5.613148212E-2,9.361505508E-4,2.218723297E-2
9.701398506E0,4.847472906E-2,-7.605671883E-3,5.994796753E-2
9.706417672E0,5.035644770E-2,4.554986954E-4,7.125854492E-2
9.711436839E0,6.544372439E-2,1.428556442E-2,5.041122437E-2
9.716456006E0,5.695098639E-2,1.728701591E-2,4.042434692E-2
9.721475172E0,4.975694418E-2,2.622425556E-2,1.509475708E-2
9.726494339E0,4.389172792E-2,3.398883343E-2,6.790161133E-4
9.731513506E0,3.569534421E-2,3.233146667E-2,-3.139591217E-2
9.736532672E0,2.883604169E-2,3.913784027E-2,-5.724143982E-2
9.741551839E0,8.535981178E-4,3.900432587E-2,-4.601860046E-2
9.746571006E0,-7.743537426E-3,4.862928391E-2,-3.958415985E-2
9.751590172E0,7.575154305E-4,4.400360584E-2,-7.116413116E-2
9.756609339E0,1.561850309E-3,4.404866695E-2,-1.404647827E-1
9.761628506E0,7.461309433E-3,4.502999783E-2,-1.403694153E-1
9.766647672E0,9.535491467E-3,3.501331806E-2,-6.436252594E-2
9.771666839E0,7.906347513E-3,8.025527000E-3,8.686065674E-2
9.776686006E0,2.134588361E-2,-9.519577026E-3,1.761751175E-1
9.781705172E0,5.405777693E-2,-2.821278572E-2,1.519184113E-1
9.786724339E0,6.094786525E-2,-3.965651989E-2,2.460002899E-2
9.791743506E0,7.009232044E-2,-4.125344753E-2,-6.477165222E-2
9.796762672E0,4.332855344E-2,-1.745200157E-2,-1.414079666E-1
9.801781839E0,2.641320229E-3,-7.545113564E-3,-2.054290771E-1
9.806801006E0,-2.175164223E-2,-2.934455872E-3,-1.916446686E-1
9.811820172E0,-3.054887056E-2,-1.450073719E-2,-1.541852951E-1
9.816839339E0,-1.559925079E-2,-1.152265072E-2,-7.193470001E-2
9.821858506E0,3.385305405E-3,-9.602785110E-3,-3.417968750E-3
9.826877672E0,8.211135864E-3,-3.381824493E-2,5.503845215E-2
9.831896839E0,3.737261891E-2,-2.976191044E-2,8.921051025E-2
9.836916006E0,6.121838093E-2,-5.003368855E-2,1.372680664E-1
9.841935172E0,5.933651328E-2,-5.058026314E-2,1.777086258E-1
9.846954339E0,8.257634938E-2,-3.885293007E-2,2.141103745E-1
9.851973506E0,9.637889266E-2,-2.565133572E-2,2.203903198E-1
9.856992672E0,1.007730961E-1,-1.798534393E-2,1.861381531E-1
9.862011787E0,9.327757359E-2,-1.206481457E-2,1.295251846E-1
9.867030745E0,8.008137345E-2,3.060817719E-3,5.791378021E-2
9.872049704E0,5.154171586E-2,2.398204803E-2,-1.232147217E-3
9.877068662E0,2.557942271E-2,4.143369198E-2,-5.033874512E-2
9.882087620E0,1.990765333E-2,5.673384666E-2,-7.048320770E-2
9.887106579E0,1.430433989E-2,4.158854485E-2,-8.916854858E-2
9.892125537E0,1.095542312E-2,5.928409100E-2,-9.927368164E-2
9.897144495E0,1.457759738E-2,7.749903202E-2,-8.662223816E-2
9.902163454E0,1.199373603E-2,7.949542999E-2,-7.160854340E-2
9.907182412E0,1.165077090E-2,9.629559517E-2,-4.000091553E-2
9.912201370E0,2.545571327E-2,9.428644180E-2,2.084732056E-3
9.917220329E0,2.716714144E-2,1.043199301E-1,2.484989166E-2
9.922239287E0,1.362377405E-2,9.770607948E-2,4.150581360E-2
9.927258245E0,7.335633039E-3,1.100167036E-1,6.274986267E-2
9.932277204E0,1.547122002E-2,8.276784420E-2,7.427501678E-2
9.937296162E0,1.171198487E-2,7.449793816E-2,6.666469574E-2
9.942315120E0,2.013629675E-2,6.357443333E-2,4.837989807E-2
9.947334079E0,2.024364471E-2,6.078028679E-2,2.426338196E-2
9.952353037E0,8.561760187E-3,5.907773972E-2,-6.793975830E-3
9.957371995E0,2.557677031E-2,2.747714520E-2,-2.694702148E-2
9.962390954E0,3.655174375E-2,6.770491600E-3,-3.863143921E-2
9.967412256E0,5.093401670E-2,-3.056645393E-3,-5.615043640E-2
9.972432568E0,4.749438167E-2,-2.570664883E-2,-5.331134796E-2
9.977451735E0,3.216543794E-2,-5.158901215E-2,-8.371067047E-2
9.982470902E0,3.238168359E-2,-5.102312565E-2,-6.041717529E-2
9.987490068E0,3.728738427E-2,-6.448626518E-2,-3.727912903E-2
9.992509235E0,3.618147969E-2,-6.707441807E-2,-3.568744659E-2
9.997528297E0,3.499877453E-2,-8.610999584E-2,-3.052425385E-2
1.000254726E1,3.136876225E-2,-7.881534100E-2,1.140594482E-2
1.000756621E1,3.363925219E-2,-1.036568880E-1,7.869720459E-3
1.001258517E1,4.524651170E-2,-8.682703972E-2,3.045749664E-2
1.001760413E1,2.711975574E-2,-7.022762299E-2,5.284214020E-2
1.002262309E1,2.680894732E-2,-6.469631195E-2,5.243492126E-2
1.002764205E1,3.588807583E-2,-5.473053455E-2,6.028842926E-2
1.003266101E1,3.064978123E-2,-4.619181156E-2,5.617713928E-2
1.003767996E1,2.176415920E-2,-1.303553581E-2,7.816600800E-2
1.004269892E1,1.753202081E-2,-1.001274586E-2,4.769992828E-2
1.004771788E1,3.103470802E-2,-9.465575218E-3,1.984596252E-2
1.005273684E1,1.599562168E-2,2.658867836E-2,-1.847743988E-2
1.005775580E1,1.657515764E-2,6.010758877E-2,-5.051708221E-2
1.006277476E1,1.254850626E-2,5.794799328E-2,-3.713607788E-2
1.006779371E1,2.701103687E-3,7.146084309E-2,-8.389472961E-3
1.007281267E1,-3.341674805E-3,6.614315510E-2,-2.968597412E-2
1.007783163E1,-1.050603390E-2,7.907366753E-2,-1.274299622E-2
1.008285059E1,-1.869991422E-2,6.963670254E-2,-7.423400879E-2
1.008786955E1,-1.391860843E-2,7.969498634E-2,-9.596443176E-2
